subj,item,resp,isCorrect,RT,duration,type,trial,time,levDist,rep,alpha,fixedRT,estRT
1501,3,fish,TRUE,2295,3.131,study,1,3.131,0,1,0.3,0.3,Inf
1501,3,fish,TRUE,888,2.2950000000000004,test,2,5.426,0,2,0.3,0.3,1.7856
1501,12,book,TRUE,3128,4.821999999999999,study,3,10.248,0,1,0.3,0.3,Inf
1501,12,book,TRUE,841,2.5280000000000005,test,4,12.776,0,2,0.3,0.3,1.9031
1501,2,beer,TRUE,4203,6.048000000000002,study,5,18.824,0,1,0.3,0.3,Inf
1501,9,police,TRUE,2456,4.988999999999997,study,6,23.813,0,1,0.3,0.3,Inf
1501,2,beer,TRUE,968,2.514000000000003,test,7,26.327,0,2,0.3,0.3,2.3551
1501,9,police,TRUE,1182,2.8669999999999973,test,8,29.194,0,2,0.3,0.3,2.1304
1501,22,fruit,TRUE,2544,4.782,study,9,33.976,0,1,0.3,0.3,Inf
1501,5,office,TRUE,2128,4.596000000000004,study,10,38.572,0,1,0.3,0.3,Inf
1501,22,fruit,TRUE,1383,3.8870000000000005,test,11,42.459,0,2,0.3,0.3,2.2572
1501,5,office,TRUE,1082,2.9579999999999984,test,12,45.417,0,2,0.3,0.3,2.1991
1501,3,fish,TRUE,1634,3.0549999999999997,test,13,48.472,0,3,0.2504,0.3,2.3399
1501,14,voice,TRUE,2391,3.926000000000002,study,14,52.398,0,1,0.3,0.3,Inf
1501,12,office,FALSE,2372,4.109999999999999,test,15,56.508,6,3,0.3496,0.3,2.3132
1501,14,voice,TRUE,3493,8.317,test,16,64.825,0,2,0.3,0.3,2.3772
1501,23,pain,TRUE,2084,4.341999999999999,study,17,69.167,0,1,0.3,0.3,Inf
1501,8,music,TRUE,1842,3.7390000000000043,study,18,72.906,0,1,0.3,0.3,Inf
1501,23,pain,TRUE,1735,3.594999999999999,test,19,76.501,0,2,0.3,0.3,2.1716
1501,8,voice,FALSE,7976,9.310000000000002,test,20,85.811,4,2,0.3,0.3,2.118
1501,9,book,FALSE,2497,7.708999999999989,test,21,93.52,5,3,0.3496,0.3,2.557
1501,2,fruit,FALSE,1489,6.791000000000011,test,22,100.311,5,3,0.3496,0.3,2.6351
1501,22,fruit,TRUE,1693,6.468999999999994,test,23,106.78,0,3,0.2504,0.3,2.5629
1501,5,book,FALSE,2660,4.215000000000003,test,24,110.995,6,3,0.3496,0.3,2.5623
1501,12,book,TRUE,5512,10.198999999999998,test,25,121.194,0,4,0.3992,0.3,2.6203
1501,14,voice,TRUE,1570,2.914999999999992,test,26,124.109,0,3,0.2504,0.3,2.5043
1501,23,pain,TRUE,1298,2.4780000000000086,test,27,126.587,0,3,0.2504,0.3,2.4037
1501,8,music,TRUE,4785,6.3430000000000035,test,28,132.93,0,3,0.3496,0.3,2.3959
1501,9,police,TRUE,1780,3.4110000000000014,test,29,136.341,0,4,0.3,0.3,2.4284
1501,2,beer,TRUE,1661,3.408999999999992,test,30,139.75,0,4,0.3,0.3,2.3817
1501,12,book,TRUE,3879,5.173000000000002,test,31,144.923,0,5,0.4441,0.3,2.3035
1501,5,fish,FALSE,7400,9.328000000000003,test,32,154.251,4,4,0.3992,0.3,2.3503
1501,10,cloud,TRUE,1919,7.055000000000007,study,33,161.306,0,1,0.3,0.3,Inf
1501,12,office,FALSE,1748,3.144999999999982,test,34,164.451,6,6,0.4445,0.3,2.2273
1501,10,cloud,TRUE,1703,7.424000000000007,test,35,171.875,0,2,0.3,0.3,2.3071
1501,8,music,TRUE,2071,3.507000000000005,test,36,175.382,0,4,0.3492,0.3,2.4101
1501,5,office,TRUE,3118,5.034999999999997,test,37,180.417,0,5,0.4488,0.3,2.3099
1501,18,friend,TRUE,2575,4.371999999999986,study,38,184.789,0,1,0.3,0.3,Inf
1501,11,chicken,TRUE,2329,4.280000000000001,study,39,189.069,0,1,0.3,0.3,Inf
1501,18,friend,TRUE,979,2.379000000000019,test,40,191.448,0,2,0.3,0.3,2.2105
1501,11,chicken,TRUE,873,2.4029999999999916,test,41,193.851,0,2,0.3,0.3,2.066
1501,25,language,TRUE,2043,4.287000000000006,study,42,198.138,0,1,0.3,0.3,Inf
1501,5,office,TRUE,3469,5.021999999999991,test,43,203.16,0,6,0.4734,0.3,2.2802
1501,25,language,TRUE,2192,5.271000000000015,test,44,208.431,0,2,0.3,0.3,2.253
1501,12,office,FALSE,3271,6.588999999999999,test,45,215.02,6,7,0.4449,0.3,2.4127
1501,10,cloud,TRUE,1149,5.888999999999982,test,46,220.909,0,3,0.2504,0.3,2.3802
1501,5,office,TRUE,1505,3.531000000000006,test,47,224.44,0,7,0.473,0.3,2.2167
1501,15,thanks,TRUE,3596,5.336999999999989,study,48,229.777,0,1,0.3,0.3,Inf
1501,20,bike,TRUE,2745,3.9650000000000034,study,49,233.742,0,1,0.3,0.3,Inf
1501,15,thank you,FALSE,1568,3.6899999999999977,test,50,237.432,4,2,0.3,0.3,2.2524
1501,20,bike,TRUE,1885,6.685000000000002,test,51,244.117,0,2,0.3,0.3,2.3562
1501,11,chicken,TRUE,6159,7.8160000000000025,test,52,251.933,0,3,0.3496,0.3,2.4391
1501,18,friend,TRUE,869,2.2680000000000007,test,53,254.201,0,3,0.2504,0.3,2.5436
1501,25,language,TRUE,763,3.0349999999999966,test,54,257.236,0,3,0.2504,0.3,2.3918
1501,8,music,TRUE,3328,4.735000000000014,test,55,261.971,0,5,0.3988,0.3,2.4401
1501,5,fish,FALSE,5493,7.5260000000000105,test,56,269.497,4,8,0.4789,0.3,2.3611
1501,12,book,TRUE,1660,6.669999999999959,test,57,276.167,0,8,0.4445,0.3,2.5248
1501,7,eye,TRUE,2055,3.9600000000000364,study,58,280.127,0,1,0.3,0.3,Inf
1501,16,work,TRUE,1148,2.444999999999993,study,59,282.572,0,1,0.3,0.3,Inf
1501,7,eye,TRUE,1470,2.9529999999999745,test,60,285.525,0,2,0.3,0.3,2.0456
1501,16,work,TRUE,951,2.112000000000023,test,61,287.637,0,2,0.3,0.3,1.9585
1501,15,thanks,TRUE,2568,4.024999999999977,test,62,291.662,0,3,0.3254,0.3,2.4288
1501,11,chicken,TRUE,988,2.6000000000000227,test,63,294.262,0,4,0.3,0.3,2.4533
1501,20,bike,TRUE,3386,4.586999999999989,test,64,298.849,0,3,0.3496,0.3,2.4123
1501,8,music,TRUE,1694,3.002999999999986,test,65,301.852,0,6,0.3984,0.3,2.4426
1501,5,office,TRUE,3947,5.337000000000046,test,66,307.189,0,9,0.5285,0.3,2.3518
1501,3,fish,TRUE,6637,7.866999999999962,test,67,315.056,0,4,0.3,0.3,2.4983
1501,5,office,TRUE,1483,3.233000000000004,test,68,318.289,0,10,0.5281,0.3,2.1508
1501,19,wheel,TRUE,1761,3.2350000000000136,study,69,321.524,0,1,0.3,0.3,Inf
1501,13,song,TRUE,1417,2.512999999999977,study,70,324.037,0,1,0.3,0.3,Inf
1501,19,song,FALSE,7119,10.343000000000018,test,71,334.38,5,2,0.3,0.3,1.9899
1501,13,song,TRUE,1973,6.475000000000023,test,72,340.855,0,2,0.3,0.3,2.6083
1501,7,police,FALSE,10040,11.880999999999972,test,73,352.736,5,3,0.3496,0.3,2.516
1501,16,police,FALSE,5298,10.269999999999982,test,74,363.006,5,3,0.3496,0.3,2.6838
1501,5,office,TRUE,4011,8.861000000000047,test,75,371.867,0,11,0.5777,0.3,2.6744
1501,20,bike,TRUE,1173,2.298000000000002,test,76,374.165,0,4,0.3,0.3,2.7521
1501,12,book,TRUE,1778,3.4489999999999554,test,77,377.614,0,9,0.4441,0.3,2.7469
1501,5,office,TRUE,1169,2.8450000000000273,test,78,380.459,0,12,0.5773,0.3,2.2982
1501,15,thanks,TRUE,1662,2.9990000000000236,test,79,383.458,0,4,0.3,0.3,2.6149
1501,19,wheel,TRUE,936,2.3029999999999973,test,80,385.761,0,3,0.2504,0.3,2.5417
1501,8,music,TRUE,1018,2.412999999999954,test,81,388.174,0,7,0.3488,0.3,2.532
1501,7,eye,TRUE,1353,2.438000000000045,test,82,390.612,0,4,0.3,0.3,2.4702
1501,9,police,TRUE,6321,8.008999999999958,test,83,398.621,0,5,0.3496,0.3,2.5731
1501,5,office,TRUE,2343,3.9530000000000314,test,84,402.574,0,13,0.577,0.3,2.3458
1501,16,work,TRUE,2035,3.255999999999972,test,85,405.83,0,4,0.3,0.3,2.5062
1501,13,cloud,FALSE,8487,10.51400000000001,test,86,416.344,4,3,0.3496,0.3,2.558
1501,2,beer,TRUE,1317,6.1229999999999905,test,87,422.467,0,5,0.2504,0.3,2.606
1501,5,office,TRUE,1032,2.504000000000019,test,88,424.971,0,14,0.5273,0.3,2.323
1501,3,fish,TRUE,1306,2.6129999999999995,test,89,427.584,0,5,0.2504,0.3,2.5625
1501,22,cloud,FALSE,9569,12.942000000000007,test,90,440.526,5,4,0.3,0.3,2.5106
1501,12,office,FALSE,1753,6.849999999999966,test,91,447.376,6,10,0.49370000000000003,0.3,2.5354
1501,13,song,TRUE,1373,5.999000000000024,test,92,453.375,0,4,0.3,0.3,2.4232
1501,9,police,TRUE,2301,3.8999999999999773,test,93,457.275,0,6,0.3492,0.3,2.497
1501,23,wheel,FALSE,4337,12.647000000000048,test,94,469.922,5,4,0.3,0.3,2.5573
1501,12,book,TRUE,3838,9.018999999999949,test,95,478.941,0,11,0.5184,0.3,2.5639
1501,14,voice,TRUE,1676,2.9530000000000314,test,96,481.894,0,4,0.2008,0.3,2.5553
1501,4,pants,TRUE,2827,4.471000000000004,study,97,486.365,0,1,0.3,0.3,Inf
1501,21,color,TRUE,1614,3.6649999999999636,study,98,490.03,0,1,0.3,0.3,Inf
1501,4,pants,TRUE,1054,2.3080000000000496,test,99,492.338,0,2,0.3,0.3,2.1756
1501,21,color,TRUE,5174,6.435000000000002,test,100,498.773,0,2,0.3,0.3,2.0093
1501,12,book,TRUE,1698,3.013999999999953,test,101,501.787,0,12,0.4688,0.3,2.4464
1501,5,office,TRUE,1854,3.2320000000000277,test,102,505.019,0,15,0.4777,0.3,2.4776
1501,6,monkey,TRUE,1730,3.2690000000000055,study,103,508.288,0,1,0.3,0.3,Inf
1501,24,shop,TRUE,1416,2.673999999999978,study,104,510.962,0,1,0.3,0.3,Inf
1501,6,monkey,TRUE,1423,3.038000000000011,test,105,514,0,2,0.3,0.3,2.007
1501,24,shop,TRUE,902,2.298999999999978,test,106,516.299,0,2,0.3,0.3,1.9867
1501,11,chicken,TRUE,1298,4.255999999999972,test,107,520.555,0,5,0.2504,0.3,2.4987
1501,1,enemy,TRUE,2003,3.6510000000000673,study,108,524.206,0,1,0.3,0.3,Inf
1501,22,fruit,TRUE,2343,3.774000000000001,test,109,527.98,0,5,0.2895,0.3,2.4668
1501,1,enemy,TRUE,1259,4.255999999999972,test,110,532.236,0,2,0.3,0.3,2.1248
1501,10,song,FALSE,2030,3.2200000000000273,test,111,535.456,4,4,0.3,0.3,2.4973
1501,21,shop,FALSE,3197,10.06499999999994,test,112,545.521,4,3,0.3496,0.3,2.3619
1501,4,pants,TRUE,2028,6.888000000000034,test,113,552.409,0,3,0.2504,0.3,2.5015
1501,23,pain,TRUE,965,2.0430000000000064,test,114,554.452,0,5,0.2504,0.3,2.4836
1501,6,shop,FALSE,5310,6.558999999999969,test,115,561.011,6,3,0.3496,0.3,2.3166
1501,24,shop,TRUE,1266,6.551000000000045,test,116,567.562,0,3,0.2504,0.3,2.422
1501,25,language,TRUE,1871,4.028999999999996,test,117,571.591,0,4,0.2008,0.3,2.5048
1501,18,friend,TRUE,1087,3.1299999999999955,test,118,574.721,0,4,0.2008,0.3,2.5122
1501,1,enemy,TRUE,1414,3.0030000000000427,test,119,577.724,0,3,0.2504,0.3,2.3481
1501,17,holidays,TRUE,1915,4.190999999999917,study,120,581.915,0,1,0.3,0.3,Inf
1501,21,color,TRUE,5180,6.761000000000081,test,121,588.676,0,4,0.3992,0.3,2.3799
1501,17,holidays,TRUE,1482,3.578999999999951,test,122,592.255,0,2,0.3,0.3,2.3505
1501,15,thanks,TRUE,1235,2.4840000000000373,test,123,594.739,0,5,0.2504,0.3,2.4981
1501,9,police,TRUE,3776,5.996999999999957,test,124,600.736,0,7,0.3746,0.3,2.4898
1501,6,monkey,TRUE,4823,7.235000000000014,test,125,607.971,0,4,0.3992,0.3,2.4139
1501,12,book,TRUE,5107,6.374000000000024,test,126,614.345,0,13,0.5184,0.3,2.5012
1501,21,color,TRUE,1625,3.419999999999959,test,127,617.765,0,5,0.3988,0.3,2.356
1501,20,bike,TRUE,1239,2.94500000000005,test,128,620.71,0,5,0.2504,0.3,2.5332
1501,7,eye,TRUE,1168,2.24899999999991,test,129,622.959,0,5,0.2504,0.3,2.5183
1501,12,book,TRUE,2084,3.3280000000000882,test,130,626.287,0,14,0.518,0.3,2.2564
1501,16,work,TRUE,6539,7.66599999999994,test,131,633.953,0,5,0.3496,0.3,2.4941
1501,6,monkey,TRUE,2863,4.456999999999994,test,132,638.41,0,5,0.4473,0.3,2.3806
1501,10,song,FALSE,5238,10.730000000000018,test,133,649.14,4,5,0.3293,0.3,2.5012
1501,17,holidays,TRUE,2858,7.946000000000026,test,134,657.086,0,3,0.3246,0.3,2.5364
1501,6,monkey,TRUE,2567,4.206000000000017,test,135,661.292,0,6,0.4484,0.3,2.3039
1501,12,book,TRUE,2512,3.86099999999999,test,136,665.153,0,15,0.5309,0.3,2.387
1501,5,office,TRUE,3168,4.529999999999973,test,137,669.683,0,16,0.4781,0.3,2.4721
1501,19,wheel,TRUE,1300,3.134999999999991,test,138,672.818,0,4,0.2008,0.3,2.4883
1501,21,color,TRUE,1296,2.608000000000061,test,139,675.426,0,6,0.3984,0.3,2.3916
1501,8,dance,FALSE,4449,5.668999999999983,test,140,681.095,5,8,0.3492,0.3,2.4971
1501,9,police,TRUE,1716,6.643000000000029,test,141,687.738,0,8,0.35,0.3,2.4818
1501,16,work,TRUE,4779,7.294999999999959,test,142,695.033,0,6,0.3828,0.3,2.4513
1501,12,book,TRUE,2766,4.037000000000035,test,143,699.07,0,16,0.5313,0.3,2.3825
1501,6,monkey,TRUE,2219,4.414999999999964,test,144,703.485,0,7,0.448,0.3,2.3779
1501,13,song,TRUE,2270,3.2799999999999727,test,145,706.765,0,5,0.2746,0.3,2.5055
1501,17,holidays,TRUE,1280,2.8050000000000637,test,146,709.57,0,4,0.275,0.3,2.2988
1501,10,cloud,TRUE,2137,3.3479999999999563,test,147,712.918,0,6,0.3289,0.3,2.3149
1501,5,office,TRUE,1025,2.3740000000000236,test,148,715.292,0,17,0.466,0.3,2.2029
1501,12,book,TRUE,975,2.1079999999999472,test,149,717.4,0,17,0.5301,0.3,2.0602
1501,16,work,TRUE,1042,2.1030000000000655,test,150,719.503,0,7,0.3816,0.3,2.1467
1501,21,color,TRUE,1024,2.2029999999999745,test,151,721.706,0,7,0.3488,0.3,2.1644
1502,14,voice,TRUE,2173,3.191,study,1,3.191,0,1,0.3,0.3,Inf
1502,14,voice,TRUE,795,2.1530000000000005,test,2,5.344,0,2,0.3,0.3,1.7945
1502,3,fish,TRUE,1642,2.797999999999999,study,3,8.142,0,1,0.3,0.3,Inf
1502,3,fish,TRUE,498,1.7390000000000008,test,4,9.881,0,2,0.3,0.3,1.6615
1502,7,eye,TRUE,1319,2.933,study,5,12.814,0,1,0.3,0.3,Inf
1502,13,song,TRUE,1441,2.6799999999999997,study,6,15.494,0,1,0.3,0.3,Inf
1502,7,eye,TRUE,669,1.8790000000000013,test,7,17.373,0,2,0.3,0.3,1.9772
1502,13,song,TRUE,439,1.600999999999999,test,8,18.974,0,2,0.3,0.3,1.8759
1502,9,police,TRUE,1207,2.823999999999998,study,9,21.798,0,1,0.3,0.3,Inf
1502,23,pain,TRUE,1312,2.7040000000000006,study,10,24.502,0,1,0.3,0.3,Inf
1502,9,fish,FALSE,1661,4.556000000000001,test,11,29.058,5,2,0.3,0.3,1.9706
1502,23,pain,TRUE,1376,5.828000000000003,test,12,34.886,0,2,0.3,0.3,2.3325
1502,19,wheel,TRUE,1304,2.8329999999999984,study,13,37.719,0,1,0.3,0.3,Inf
1502,17,holidays,TRUE,1832,3.5360000000000014,study,14,41.255,0,1,0.3,0.3,Inf
1502,19,eye,FALSE,1649,2.8659999999999997,test,15,44.121,4,2,0.3,0.3,2.0419
1502,17,holidays,TRUE,1516,6.68,test,16,50.801,0,2,0.3,0.3,2.2826
1502,14,eye,FALSE,4143,5.431999999999995,test,17,56.233,4,3,0.3496,0.3,2.4226
1502,3,fish,TRUE,1896,6.534000000000006,test,18,62.767,0,3,0.2504,0.3,2.5206
1502,13,voice,FALSE,1755,12.523000000000003,test,19,75.29,4,3,0.3496,0.3,2.3697
1502,7,eye,TRUE,1210,6.079999999999998,test,20,81.37,0,3,0.2504,0.3,2.5915
1502,9,police,TRUE,1575,4.313999999999993,test,21,85.684,0,3,0.2504,0.3,2.513
1502,23,pain,TRUE,1406,3.5589999999999975,test,22,89.243,0,3,0.2504,0.3,2.4121
1502,19,wheel,TRUE,1602,3.1410000000000053,test,23,92.384,0,3,0.2504,0.3,2.3783
1502,14,voice,TRUE,1713,4.1440000000000055,test,24,96.528,0,4,0.3,0.3,2.3906
1502,17,holidays,TRUE,1052,2.8659999999999997,test,25,99.394,0,3,0.2504,0.3,2.3619
1502,24,shop,TRUE,1350,2.7169999999999987,study,26,102.111,0,1,0.3,0.3,Inf
1502,13,song,TRUE,1915,3.0360000000000014,test,27,105.147,0,4,0.3,0.3,2.3389
1502,24,shop,TRUE,1177,2.3840000000000003,test,28,107.531,0,2,0.3,0.3,1.9901
1502,11,chicken,TRUE,1294,3.742999999999995,study,29,111.274,0,1,0.3,0.3,Inf
1502,25,language,TRUE,1366,3.087999999999994,study,30,114.362,0,1,0.3,0.3,Inf
1502,11,chicken,TRUE,789,2.5330000000000013,test,31,116.895,0,2,0.3,0.3,2.0797
1502,25,language,TRUE,887,2.6069999999999993,test,32,119.502,0,2,0.3,0.3,1.9792
1502,15,thanks,TRUE,1554,2.948999999999998,study,33,122.451,0,1,0.3,0.3,Inf
1502,1,enemy,TRUE,1614,3.385000000000005,study,34,125.836,0,1,0.3,0.3,Inf
1502,15,thanks,TRUE,963,2.3090000000000117,test,35,128.145,0,2,0.3,0.3,2.0417
1502,1,enemy,TRUE,822,2.304000000000002,test,36,130.449,0,2,0.3,0.3,1.9854
1502,6,monkey,TRUE,1490,4.295999999999992,study,37,134.745,0,1,0.3,0.3,Inf
1502,5,office,TRUE,1329,2.9410000000000025,study,38,137.686,0,1,0.3,0.3,Inf
1502,6,monkey,TRUE,764,2.915999999999997,test,39,140.602,0,2,0.3,0.3,2.1116
1502,5,office,TRUE,847,2.3810000000000002,test,40,142.983,0,2,0.3,0.3,1.9979
1502,21,color,TRUE,1267,2.7930000000000064,study,41,145.776,0,1,0.3,0.3,Inf
1502,2,beer,TRUE,1131,2.526999999999987,study,42,148.303,0,1,0.3,0.3,Inf
1502,21,color,TRUE,804,2.367999999999995,test,43,150.671,0,2,0.3,0.3,1.951
1502,2,beer,TRUE,568,2.200000000000017,test,44,152.871,0,2,0.3,0.3,1.9085
1502,24,song,FALSE,4681,6.258999999999986,test,45,159.13,3,3,0.3496,0.3,2.3829
1502,11,chicken,TRUE,2529,7.885999999999996,test,46,167.016,0,3,0.3184,0.3,2.3745
1502,25,language,TRUE,1020,2.835000000000008,test,47,169.851,0,3,0.2504,0.3,2.4193
1502,15,office,FALSE,14018,18.276999999999987,test,48,188.128,6,3,0.3496,0.3,2.3193
1502,1,office,FALSE,3379,8.634000000000015,test,49,196.762,6,3,0.3496,0.3,2.592
1502,6,monkey,TRUE,1254,6.407000000000011,test,50,203.169,0,3,0.2504,0.3,2.5555
1502,5,office,TRUE,1226,2.673000000000002,test,51,205.842,0,3,0.2504,0.3,2.5791
1502,21,color,TRUE,1760,3.1219999999999857,test,52,208.964,0,3,0.2504,0.3,2.5259
1502,2,beer,TRUE,824,2.141999999999996,test,53,211.106,0,3,0.2504,0.3,2.5458
1502,24,shop,TRUE,4308,5.4950000000000045,test,54,216.601,0,4,0.3992,0.3,2.5788
1502,15,thanks,TRUE,1578,2.929000000000002,test,55,219.53,0,4,0.3,0.3,2.4176
1502,10,cloud,TRUE,1279,4.275000000000006,study,56,223.805,0,1,0.3,0.3,Inf
1502,16,work,TRUE,1916,3.4609999999999843,study,57,227.266,0,1,0.3,0.3,Inf
1502,10,cloud,TRUE,516,1.7920000000000016,test,58,229.058,0,2,0.3,0.3,2.1463
1502,16,work,TRUE,929,1.9440000000000168,test,59,231.002,0,2,0.3,0.3,1.9438
1502,1,wheel,FALSE,10683,12.82899999999998,test,60,243.831,4,4,0.3992,0.3,2.3874
1502,24,shop,TRUE,3324,8.675000000000011,test,61,252.506,0,5,0.4426,0.3,2.4837
1502,11,chicken,TRUE,1274,2.841000000000008,test,62,255.347,0,4,0.2688,0.3,2.5316
1502,18,friend,TRUE,1332,2.9799999999999898,study,63,258.327,0,1,0.3,0.3,Inf
1502,4,pants,TRUE,2656,4.182999999999993,study,64,262.51,0,1,0.3,0.3,Inf
1502,18, friend,FALSE,2119,4.244000000000028,test,65,266.754,1,2,0.3,0.3,2.1044
1502,4,pants,TRUE,1992,6.751999999999953,test,66,273.506,0,2,0.3,0.3,2.3972
1502,1,enemy,TRUE,1160,2.5030000000000427,test,67,276.009,0,5,0.3988,0.3,2.5236
1502,24,shop,TRUE,957,2.2239999999999895,test,68,278.233,0,6,0.4367,0.3,2.4291
1502,16,monkey,FALSE,4599,8.09699999999998,test,69,286.33,4,3,0.3496,0.3,2.4126
1502,10,cloud,TRUE,1502,6.209000000000003,test,70,292.539,0,3,0.2504,0.3,2.5492
1502,22,fruit,TRUE,1207,4.126000000000033,study,71,296.665,0,1,0.3,0.3,Inf
1502,14,voice,TRUE,3144,4.788999999999987,test,72,301.454,0,5,0.348,0.3,2.4784
1502,22,fruit,TRUE,1537,3.680000000000007,test,73,305.134,0,2,0.3,0.3,2.2265
1502,8,music,TRUE,1462,2.9799999999999613,study,74,308.114,0,1,0.3,0.3,Inf
1502,18,friend,TRUE,821,2.465000000000032,test,75,310.579,0,3,0.2504,0.3,2.3347
1502,8,music,TRUE,1086,2.551999999999964,test,76,313.131,0,2,0.3,0.3,1.9627
1502,13,cloud,FALSE,1070,2.4820000000000277,test,77,315.613,4,5,0.3496,0.3,2.492
1502,16,work,TRUE,1974,6.533999999999992,test,78,322.147,0,4,0.3031,0.3,2.3647
1502,4,pants,TRUE,1085,2.495999999999981,test,79,324.643,0,3,0.2504,0.3,2.391
1502,24,shop,TRUE,949,2.2170000000000414,test,80,326.86,0,7,0.4324,0.3,2.4005
1502,3,fish,TRUE,2684,4.4909999999999854,test,81,331.351,0,4,0.2617,0.3,2.5266
1502,1,enemy,TRUE,4224,5.694000000000017,test,82,337.045,0,6,0.4008,0.3,2.4188
1502,20,bike,TRUE,4594,6.4909999999999854,study,83,343.536,0,1,0.3,0.3,Inf
1502,12,book,TRUE,1931,3.3210000000000264,study,84,346.857,0,1,0.3,0.3,Inf
1502,20,book,FALSE,1350,2.5599999999999454,test,85,349.417,3,2,0.3,0.3,2.2833
1502,12,bike,FALSE,1160,5.942000000000007,test,86,355.359,3,2,0.3,0.3,2.251
1502,22,book,FALSE,4618,9.435000000000002,test,87,364.794,5,3,0.3496,0.3,2.475
1502,8,music,TRUE,1368,6.261000000000024,test,88,371.055,0,3,0.2504,0.3,2.5243
1502,14,eye,FALSE,3388,4.505999999999972,test,89,375.561,4,6,0.3484,0.3,2.5164
1502,13,voice,FALSE,2352,9.515000000000043,test,90,385.076,4,6,0.3875,0.3,2.4857
1502,9,police,TRUE,5344,10.656999999999982,test,91,395.733,0,4,0.3,0.3,2.5378
1502,24,shop,TRUE,1760,3.2749999999999773,test,92,399.008,0,8,0.3828,0.3,2.4653
1502,7,pants,FALSE,13166,14.609000000000037,test,93,413.617,5,4,0.3,0.3,2.5564
1502,20,fruti,FALSE,3976,8.894999999999982,test,94,422.512,5,3,0.3496,0.3,2.6144
1502,22,fruit,TRUE,1154,5.920000000000016,test,95,428.432,0,4,0.3,0.3,2.6729
1502,12,voice,FALSE,7418,12.786999999999978,test,96,441.219,4,3,0.3496,0.3,2.6765
1502,1,enemy,TRUE,1298,6.110000000000014,test,97,447.329,0,7,0.3996,0.3,2.6845
1502,13,voice,FALSE,1976,4.163999999999987,test,98,451.493,4,7,0.434,0.3,2.5914
1502,19,fruit,FALSE,4217,9.821000000000026,test,99,461.314,5,4,0.3,0.3,2.6489
1502,20,bike,TRUE,1053,5.741999999999962,test,100,467.056,0,4,0.3492,0.3,2.4856
1502,23,pain,TRUE,984,1.990000000000009,test,101,469.046,0,4,0.2008,0.3,2.6127
1502,17,holidays,TRUE,1372,3.031000000000006,test,102,472.077,0,4,0.2008,0.3,2.6125
1502,15,thanks,TRUE,1353,2.670000000000016,test,103,474.747,0,5,0.2504,0.3,2.6026
1502,12,book,TRUE,2714,4.046999999999969,test,104,478.794,0,4,0.3867,0.3,2.4868
1502,13,song,TRUE,1294,2.369000000000028,test,105,481.163,0,8,0.3844,0.3,2.4624
1502,25,language,TRUE,962,2.444000000000017,test,106,483.607,0,4,0.2008,0.3,2.5589
1502,9,police,TRUE,1182,3.2959999999999923,test,107,486.903,0,5,0.2504,0.3,2.4773
1502,2,beer,TRUE,934,2.0009999999999764,test,108,488.904,0,4,0.2008,0.3,2.4877
1502,7,eye,TRUE,1418,2.552000000000021,test,109,491.456,0,5,0.2504,0.3,2.4609
1502,21,color,TRUE,1241,2.584000000000003,test,110,494.04,0,4,0.2008,0.3,2.4964
1502,5,office,TRUE,1381,2.7679999999999723,test,111,496.808,0,4,0.2008,0.3,2.4938
1502,6,monkey,TRUE,2692,4.458000000000027,test,112,501.266,0,4,0.2625,0.3,2.4848
1502,14,voice,TRUE,3230,5.079000000000008,test,113,506.345,0,7,0.398,0.3,2.4555
1502,16,fruit,FALSE,6864,8.164999999999964,test,114,514.51,5,5,0.3527,0.3,2.4366
1502,12,book,TRUE,1865,6.58299999999997,test,115,521.093,0,5,0.3746,0.3,2.4308
1502,1,enemy,TRUE,1050,2.504000000000019,test,116,523.597,0,8,0.35,0.3,2.4184
1502,19,wheel,TRUE,987,2.1410000000000764,test,117,525.738,0,5,0.2996,0.3,2.3934
1502,14,voice,TRUE,1586,2.8999999999999773,test,118,528.638,0,8,0.3484,0.3,2.196
1502,20,bike,TRUE,1036,2.298999999999978,test,119,530.937,0,5,0.2996,0.3,2.2793
1502,10,work,FALSE,6422,7.473999999999933,test,120,538.411,4,4,0.3,0.3,2.3603
1502,18,friend,TRUE,1310,6.192000000000007,test,121,544.603,0,4,0.2008,0.3,2.362
1502,3,fish,TRUE,1085,2.324000000000069,test,122,546.927,0,5,0.2168,0.3,2.3578
1502,16,work,TRUE,1833,3.1689999999999827,test,123,550.096,0,6,0.3523,0.3,2.2666
1502,11,chicken,TRUE,1619,3.119000000000028,test,124,553.215,0,5,0.2191,0.3,2.3397
1502,4,pants,TRUE,962,2.475999999999999,test,125,555.691,0,4,0.2008,0.3,2.3064
1502,24,shop,TRUE,1082,2.240000000000009,test,126,557.931,0,9,0.3332,0.3,2.2892
1502,8,music,TRUE,947,2.15199999999993,test,127,560.083,0,4,0.2008,0.3,2.2638
1502,22,fruit,TRUE,1363,4.552000000000021,test,128,564.635,0,5,0.2504,0.3,2.1984
1502,12,book,TRUE,1551,2.7910000000000537,test,129,567.426,0,6,0.3719,0.3,2.0974
1502,13,song,TRUE,4830,6.647999999999911,test,130,574.074,0,9,0.434,0.3,2.1345
1502,10,cloud,TRUE,1272,3.6960000000000264,test,131,577.77,0,5,0.2504,0.3,2.1086
1502,13,song,TRUE,863,1.9360000000000355,test,132,579.706,0,10,0.4336,0.3,1.7969
1502,6,monkey,TRUE,1448,4.468999999999937,test,133,584.175,0,5,0.2129,0.3,2.0049
1502,16,work,TRUE,1260,2.298000000000002,test,134,586.473,0,7,0.3059,0.3,1.9071
1502,19,wheel,TRUE,1348,2.6639999999999873,test,135,589.137,0,6,0.25,0.3,1.9663
1502,12,book,TRUE,1355,2.6720000000000255,test,136,591.809,0,7,0.3715,0.3,1.7248000000000001
1502,13,song,TRUE,3256,4.682999999999993,test,137,596.492,0,11,0.4676,0.3,1.6216
1502,14,voice,TRUE,1786,2.9909999999999854,test,138,599.483,0,9,0.348,0.3,1.8256
1502,13,song,TRUE,1218,2.26400000000001,test,139,601.747,0,12,0.418,0.3,1.4846
1502,1,enemy,TRUE,1023,2.240000000000009,test,140,603.987,0,9,0.3004,0.3,1.8227
1502,20,bike,TRUE,808,2.0720000000000027,test,141,606.059,0,6,0.25,0.3,1.7524
1502,15,chicken,FALSE,1059,2.4260000000000446,test,142,608.485,5,6,0.2508,0.3,1.7566
1502,9,police,TRUE,1427,6.395999999999958,test,143,614.881,0,6,0.2078,0.3,1.7422
1502,7,eye,TRUE,1006,1.9519999999999982,test,144,616.833,0,6,0.2008,0.3,1.7346
1502,12,book,TRUE,913,2.9470000000000027,test,145,619.78,0,8,0.3219,0.3,1.6164
1502,24,shop,TRUE,923,1.9800000000000182,test,146,621.76,0,10,0.2836,0.3,1.6144
1502,17,holidays,TRUE,880,2.6720000000000255,test,147,624.432,0,5,0.1512,0.3,1.6364
1502,23,pain,TRUE,909,2.3519999999999754,test,148,626.784,0,5,0.1512,0.3,1.6385
1502,14,voice,TRUE,1392,3.483000000000061,test,149,630.267,0,10,0.3477,0.3,1.577
1502,13,song,TRUE,1721,2.895999999999958,test,150,633.163,0,13,0.4676,0.3,1.5254
1502,25,language,TRUE,827,2.256999999999948,test,151,635.42,0,5,0.1512,0.3,1.6379
1502,13,song,TRUE,1062,1.983000000000061,test,152,637.403,0,14,0.418,0.3,1.3521
1502,2,beer,TRUE,1024,2.130999999999972,test,153,639.534,0,5,0.1512,0.3,1.6238
1502,21,color,TRUE,1041,2.397000000000048,test,154,641.931,0,5,0.1512,0.3,1.6206
1502,5,office,TRUE,1253,2.6849999999999454,test,155,644.616,0,5,0.1512,0.3,1.6158
1502,16,work,TRUE,1074,2.1119999999999663,test,156,646.728,0,8,0.3016,0.3,1.5505
1502,10,cloud,TRUE,1455,4.0230000000000246,test,157,650.751,0,6,0.2008,0.3,1.5559
1502,22,fruit,TRUE,879,2.4610000000000127,test,158,653.212,0,6,0.2008,0.3,1.5702
1502,3,fish,TRUE,935,1.9279999999999973,test,159,655.14,0,6,0.1672,0.3,1.5556
1502,18,friend,TRUE,871,2.1889999999999645,test,160,657.329,0,5,0.1512,0.3,1.5489
1502,14,voice,TRUE,1359,2.535000000000082,test,161,659.864,0,11,0.341,0.3,1.4722
1502,11,chicken,TRUE,1073,2.836999999999989,test,162,662.701,0,6,0.1695,0.3,1.5297
1502,15,thanks,TRUE,562,2.0079999999999245,test,163,664.709,0,7,0.2254,0.3,1.5097
1502,13,song,TRUE,1077,2.0570000000000164,test,164,666.766,0,15,0.4059,0.3,1.4272
1502,8,music,TRUE,962,2.966000000000008,test,165,669.732,0,5,0.1512,0.3,1.5255
1502,4,pants,TRUE,911,2.090000000000032,test,166,671.822,0,5,0.1512,0.3,1.5319
1502,19,wheel,TRUE,851,2.07000000000005,test,167,673.892,0,7,0.2004,0.3,1.4815
1502,12,book,TRUE,2172,3.3889999999998963,test,168,677.281,0,9,0.3223,0.3,1.4317
1502,6,monkey,TRUE,888,2.296000000000049,test,169,679.577,0,6,0.1875,0.3,1.4334
1502,16,work,TRUE,970,1.9779999999999518,test,170,681.555,0,9,0.3012,0.3,1.3923
1502,1,enemy,TRUE,2879,4.2000000000000455,test,171,685.755,0,10,0.3008,0.3,1.4195
1502,13,song,TRUE,1080,1.9930000000000518,test,172,687.748,0,16,0.3805,0.3,1.3284
1502,14,voice,TRUE,1036,2.203999999999951,test,173,689.952,0,12,0.3195,0.3,1.3724
1502,20,bike,TRUE,773,2.0090000000000146,test,174,691.961,0,7,0.2004,0.3,1.3924
1502,12,book,TRUE,1041,2.26400000000001,test,175,694.225,0,10,0.2969,0.3,1.2625
1502,9,police,TRUE,1024,2.4249999999999545,test,176,696.65,0,7,0.1707,0.3,1.2918
1502,16,work,TRUE,944,1.9360000000000355,test,177,698.586,0,10,0.2516,0.3,1.2228
1502,24,shop,TRUE,929,2.016999999999939,test,178,700.603,0,11,0.234,0.3,1.2794
1502,1,enemy,TRUE,5438,6.743000000000052,test,179,707.346,0,11,0.3012,0.3,1.2301
1502,13,song,TRUE,1083,1.9980000000000473,test,180,709.344,0,17,0.3559,0.3,1.199
1502,7,eye,TRUE,879,2.1789999999999736,test,181,711.523,0,7,0.1512,0.3,1.2655
1502,15,thanks,TRUE,1136,3.5679999999999836,test,182,715.091,0,8,0.2,0.3,1.2377
1502,14,voice,TRUE,1290,3.19399999999996,test,183,718.285,0,13,0.3277,0.3,1.2102
1502,1,enemy,TRUE,1113,2.3290000000000646,test,184,720.614,0,12,0.2883,0.3,1.1458
1503,13,song,TRUE,4018,4.612,study,1,4.612,0,1,0.3,0.3,Inf
1503,13,song,TRUE,903,2.128,test,2,6.74,0,2,0.3,0.3,1.9415
1503,12,book,TRUE,2226,3.359,study,3,10.099,0,1,0.3,0.3,Inf
1503,12,book,TRUE,764,1.904,test,4,12.003,0,2,0.3,0.3,1.7383
1503,18,friend,TRUE,1755,3.087999999999999,study,5,15.091,0,1,0.3,0.3,Inf
1503,3,fish,TRUE,1635,4.6,study,6,19.691,0,1,0.3,0.3,Inf
1503,18,friend,TRUE,1371,2.6880000000000024,test,7,22.379,0,2,0.3,0.3,2.144
1503,3,fish,TRUE,1764,3.3919999999999995,test,8,25.771,0,2,0.3,0.3,2.1145
1503,24,shop,TRUE,1291,2.776,study,9,28.547,0,1,0.3,0.3,Inf
1503,19,wheel,TRUE,2651,4.001000000000001,study,10,32.548,0,1,0.3,0.3,Inf
1503,24,shop,TRUE,612,2,test,11,34.548,0,2,0.3,0.3,2.0753
1503,19,wheel,TRUE,693,2.1679999999999993,test,12,36.716,0,2,0.3,0.3,2.0116
1503,23,pain,TRUE,2907,4.216000000000001,study,13,40.932,0,1,0.3,0.3,Inf
1503,5,office,TRUE,2091,3.4239999999999995,study,14,44.356,0,1,0.3,0.3,Inf
1503,23,pain,TRUE,1284,2.631999999999998,test,15,46.988,0,2,0.3,0.3,2.1405
1503,5,?,FALSE,12251,12.855000000000004,test,16,59.843,6,2,0.3,0.3,2.0165
1503,13,?,FALSE,2403,8.768,test,17,68.611,4,3,0.3496,0.3,2.5423
1503,12,fish,FALSE,3036,11.295999999999992,test,18,79.907,4,3,0.3496,0.3,2.6415
1503,18,friend,TRUE,1060,5.832999999999998,test,19,85.74,0,3,0.2504,0.3,2.5632
1503,3,fish,TRUE,3507,4.623000000000005,test,20,90.363,0,3,0.3496,0.3,2.5654
1503,24,shop,TRUE,2460,4.087999999999994,test,21,94.451,0,3,0.2934,0.3,2.5046
1503,19,wheel,TRUE,3908,5.248000000000005,test,22,99.699,0,3,0.3496,0.3,2.5433
1503,23,pain,TRUE,1570,2.8400000000000034,test,23,102.539,0,3,0.2504,0.3,2.4624
1503,5,office,TRUE,1492,2.8799999999999955,test,24,105.419,0,3,0.2504,0.3,2.4863
1503,13,song,TRUE,1308,2.304000000000002,test,25,107.723,0,4,0.3,0.3,2.4156
1503,12,song,FALSE,2908,3.8799999999999955,test,26,111.603,3,4,0.3969,0.3,2.3589
1503,9,police,TRUE,3283,8.216000000000008,study,27,119.819,0,1,0.3,0.3,Inf
1503,25,language,TRUE,1940,3.5279999999999916,study,28,123.347,0,1,0.3,0.3,Inf
1503,9,police,TRUE,1996,3.7120000000000033,test,29,127.059,0,2,0.3,0.3,2.1898
1503,25,language,TRUE,787,2.1999999999999886,test,30,129.259,0,2,0.3,0.3,2.111
1503,3,fish,TRUE,2444,3.616000000000014,test,31,132.875,0,4,0.3562,0.3,2.4288
1503,19,wheel,TRUE,1996,3.2560000000000002,test,32,136.131,0,4,0.325,0.3,2.3586
1503,17,holidays,TRUE,2882,5.967999999999989,study,33,142.099,0,1,0.3,0.3,Inf
1503,12,book,TRUE,3691,4.840000000000003,test,34,146.939,0,5,0.4465,0.3,2.376
1503,17,holidays,TRUE,6131,8.04000000000002,test,35,154.979,0,2,0.3,0.3,2.3422
1503,11,chicken,TRUE,2867,4.695999999999998,study,36,159.675,0,1,0.3,0.3,Inf
1503,16,work,TRUE,1500,2.647999999999996,study,37,162.323,0,1,0.3,0.3,Inf
1503,11,chicken,TRUE,1316,3.4799999999999898,test,38,165.803,0,2,0.3,0.3,2.1187
1503,16,work,TRUE,538,1.7839999999999918,test,39,167.587,0,2,0.3,0.3,2.0227
1503,12,book,TRUE,4484,5.799000000000007,test,40,173.386,0,6,0.4758,0.3,2.3642
1503,9,police,TRUE,1676,3.280000000000001,test,41,176.666,0,3,0.2504,0.3,2.3857
1503,25,language,TRUE,1044,3,test,42,179.666,0,3,0.2504,0.3,2.3903
1503,1,enemy,TRUE,2340,4.463999999999999,study,43,184.13,0,1,0.3,0.3,Inf
1503,6,monkey,TRUE,2355,3.7520000000000095,study,44,187.882,0,1,0.3,0.3,Inf
1503,1,?,FALSE,9052,9.656000000000006,test,45,197.538,5,2,0.3,0.3,2.181
1503,6,monkey,TRUE,1875,6.671999999999997,test,46,204.21,0,2,0.3,0.3,2.6316
1503,12,book,TRUE,2139,3.2639999999999816,test,47,207.474,0,7,0.4754,0.3,2.579
1503,17,holidays,TRUE,1428,3.1200000000000045,test,48,210.594,0,3,0.2504,0.3,2.4994
1503,3,fish,TRUE,1106,2.1599999999999966,test,49,212.754,0,5,0.3496,0.3,2.4857
1503,11,chicken,TRUE,1340,3.1920000000000073,test,50,215.946,0,3,0.2504,0.3,2.4005
1503,16,?,FALSE,3187,3.7920000000000016,test,51,219.738,4,3,0.3496,0.3,2.4117
1503,24,shop,TRUE,5004,9.912000000000006,test,52,229.65,0,4,0.3188,0.3,2.5154
1503,14,voice,TRUE,1899,3.1680000000000064,study,53,232.818,0,1,0.3,0.3,Inf
1503,12,book,TRUE,1083,2.191999999999979,test,54,235.01,0,8,0.475,0.3,2.2789
1503,14,voice,TRUE,1772,2.8640000000000043,test,55,237.874,0,2,0.3,0.3,1.9547
1503,1,?,FALSE,8548,9.152000000000015,test,56,247.026,5,3,0.3496,0.3,2.3862
1503,21,color,TRUE,1580,6.711999999999989,study,57,253.738,0,1,0.3,0.3,Inf
1503,6,monkey,TRUE,995,2.319999999999993,test,58,256.058,0,3,0.2504,0.3,2.3882
1503,21,color,TRUE,1571,2.744000000000028,test,59,258.802,0,2,0.3,0.3,1.9797
1503,16,work,TRUE,1892,3.359999999999957,test,60,262.162,0,4,0.3,0.3,2.3878
1503,2,beer,TRUE,2027,3.816000000000031,study,61,265.978,0,1,0.3,0.3,Inf
1503,22,fruit,TRUE,1580,3.863999999999976,study,62,269.842,0,1,0.3,0.3,Inf
1503,2,beer,TRUE,1523,2.584000000000003,test,63,272.426,0,2,0.3,0.3,2.1434
1503,22,fruit,TRUE,972,2.1200000000000045,test,64,274.546,0,2,0.3,0.3,2.0492
1503,19,wheel,TRUE,2459,4.663999999999987,test,65,279.21,0,5,0.3215,0.3,2.4933
1503,12,book,TRUE,1547,2.872000000000014,test,66,282.082,0,9,0.4285,0.3,2.3798
1503,14,?,FALSE,3140,3.742999999999995,test,67,285.825,5,3,0.3496,0.3,2.3797
1503,1,enemy,TRUE,1484,6.312999999999988,test,68,292.138,0,4,0.3492,0.3,2.4801
1503,20,bike,TRUE,3196,4.336000000000013,study,69,296.474,0,1,0.3,0.3,Inf
1503,7,jicho,FALSE,1219,7.096000000000004,study,70,303.57,5,1,0.3,0.3,Inf
1503,20,bike,TRUE,1971,7.552000000000021,test,71,311.122,0,2,0.3,0.3,2.5458
1503,7,eye,TRUE,675,1.6959999999999695,test,72,312.818,0,2,0.3,0.3,2.5373
1503,21,color,TRUE,1412,2.775000000000034,test,73,315.593,0,3,0.2504,0.3,2.5096
1503,2,beer,TRUE,1324,2.4319999999999595,test,74,318.025,0,3,0.2504,0.3,2.3315
1503,22,fruit,TRUE,2044,3.376000000000033,test,75,321.401,0,3,0.259,0.3,2.342
1503,14,voice,TRUE,4132,5.647999999999968,test,76,327.049,0,4,0.3992,0.3,2.335
1503,13,song,TRUE,7780,8.840000000000032,test,77,335.889,0,5,0.3496,0.3,2.4995
1503,24,shop,TRUE,1291,2.8559999999999945,test,78,338.745,0,5,0.2934,0.3,2.494
1503,3,fish,TRUE,2076,3.4329999999999927,test,79,342.178,0,6,0.325,0.3,2.4782
1503,4,pants,TRUE,3746,5.2309999999999945,study,80,347.409,0,1,0.3,0.3,Inf
1503,15,thanks,TRUE,2716,4.0160000000000196,study,81,351.425,0,1,0.3,0.3,Inf
1503,4,pants,TRUE,978,2.3519999999999754,test,82,353.777,0,2,0.3,0.3,2.2491
1503,15,thanks,TRUE,259,1.552000000000021,test,83,355.329,0,2,0.3,0.3,2.0425
1503,14,voice,TRUE,1139,2.423999999999978,test,84,357.753,0,5,0.3988,0.3,2.3697
1503,20,bike,TRUE,1418,2.5360000000000014,test,85,360.289,0,3,0.2504,0.3,2.3669
1503,8,music,TRUE,1780,3.0400000000000205,study,86,363.329,0,1,0.3,0.3,Inf
1503,7,?,FALSE,1539,2.1440000000000055,test,87,365.473,3,3,0.3496,0.3,2.3848
1503,8,music,TRUE,1748,6.391999999999996,test,88,371.865,0,2,0.3,0.3,2.2059
1503,1,enemy,TRUE,2436,3.7199999999999704,test,89,375.585,0,5,0.3504,0.3,2.4283
1503,10,cloud,TRUE,1484,2.7520000000000095,study,90,378.337,0,1,0.3,0.3,Inf
1503,18,friend,TRUE,1059,2.2800000000000296,test,91,380.617,0,4,0.2008,0.3,2.475
1503,10,cloud,TRUE,1916,3.159999999999968,test,92,383.777,0,2,0.3,0.3,1.9238
1503,13,song,TRUE,1619,2.584000000000003,test,93,386.361,0,6,0.3492,0.3,2.4214
1503,5,office,TRUE,1851,3.2560000000000286,test,94,389.617,0,4,0.2008,0.3,2.4817
1503,23,pain,TRUE,1444,2.519999999999982,test,95,392.137,0,4,0.2008,0.3,2.4721
1503,15,?,FALSE,2212,2.8149999999999977,test,96,394.952,6,3,0.3496,0.3,2.2298
1503,4,?,FALSE,210,4.2169999999999845,test,97,399.169,5,3,0.3496,0.3,2.3366
1503,7,eye,TRUE,1571,6.007000000000005,test,98,405.176,0,4,0.3,0.3,2.3047
1503,12,book,TRUE,1563,4.343999999999994,test,99,409.52,0,10,0.3789,0.3,2.4087
1503,14,voice,TRUE,1428,2.5120000000000005,test,100,412.032,0,6,0.3984,0.3,2.3507
1503,8,music,TRUE,1067,2.240000000000009,test,101,414.272,0,3,0.2504,0.3,2.2868
1503,10,cloud,TRUE,1841,3.1680000000000064,test,102,417.44,0,3,0.2504,0.3,2.1635
1503,25,language,TRUE,925,2.4080000000000155,test,103,419.848,0,4,0.2008,0.3,2.3739
1503,9,police,TRUE,1836,3.2479999999999905,test,104,423.096,0,4,0.2008,0.3,2.3739
1503,19,wheel,TRUE,1221,2.4560000000000173,test,105,425.552,0,6,0.3094,0.3,2.3674
1503,15,thanks,TRUE,1476,2.9839999999999804,test,106,428.536,0,4,0.3,0.3,2.2027
1503,4,pants,TRUE,1395,2.6399999999999864,test,107,431.176,0,4,0.3,0.3,2.1665
1503,16,work,TRUE,1628,2.6960000000000264,test,108,433.872,0,5,0.2746,0.3,2.3393
1503,11,chicken,TRUE,1531,3.711999999999989,test,109,437.584,0,4,0.2008,0.3,2.3241
1503,17,holidays,TRUE,1508,3.255999999999972,test,110,440.84,0,4,0.2008,0.3,2.3072
1503,1,enemy,TRUE,2475,3.6240000000000236,test,111,444.464,0,6,0.375,0.3,2.1932
1503,6,monkey,TRUE,1355,2.7200000000000273,test,112,447.184,0,4,0.2008,0.3,2.1805
1503,14,voice,TRUE,1044,2.703999999999951,test,113,449.888,0,7,0.3488,0.3,2.0606
1503,13,song,TRUE,1236,2.2320000000000277,test,114,452.12,0,7,0.2996,0.3,2.1387
1503,22,fruti,FALSE,6188,7.415999999999997,test,115,459.536,1,4,0.3086,0.3,2.1628
1503,21,?,FALSE,3060,7.064000000000021,test,116,466.6,5,4,0.3,0.3,2.1447
1503,2,beer,TRUE,1531,6.007999999999981,test,117,472.608,0,4,0.2008,0.3,2.1368
1503,3,fish,TRUE,1402,2.887999999999977,test,118,475.496,0,7,0.3121,0.3,2.1226
1503,1,enemy,TRUE,980,2.2000000000000455,test,119,477.696,0,7,0.3504,0.3,2.0058
1503,24,shop,TRUE,1980,3.4639999999999986,test,120,481.16,0,6,0.2875,0.3,2.0729
1503,22,fruit,TRUE,1251,2.47199999999998,test,121,483.632,0,5,0.2598,0.3,1.922
1503,20,bike,TRUE,1467,5.831999999999994,test,122,489.464,0,4,0.2008,0.3,2.0002
1503,7,eye,TRUE,1113,2.3999999999999773,test,123,491.864,0,5,0.2504,0.3,1.9506
1503,21,color,TRUE,915,2.288000000000011,test,124,494.152,0,5,0.2504,0.3,1.8944
1503,15,thanks,TRUE,1147,2.4080000000000155,test,125,496.56,0,5,0.2504,0.3,1.8772
1503,10,cloud,TRUE,1452,2.9119999999999777,test,126,499.472,0,4,0.2375,0.3,1.8855
1503,4,pants,TRUE,1300,2.656000000000006,test,127,502.128,0,5,0.2504,0.3,1.8716
1503,19,wheel,TRUE,2156,3.920000000000016,test,128,506.048,0,7,0.3223,0.3,1.9114
1503,8,music,TRUE,946,2.1999999999999886,test,129,508.248,0,4,0.2008,0.3,1.9099
1503,12,book,TRUE,2085,3.3840000000000146,test,130,511.632,0,11,0.3793,0.3,1.9087
1503,16,work,TRUE,1556,2.7280000000000086,test,131,514.36,0,6,0.2461,0.3,1.7693
1503,14,voice,TRUE,1067,2.3519999999999754,test,132,516.712,0,8,0.2992,0.3,1.746
1503,1,enemy,TRUE,1522,2.73599999999999,test,133,519.448,0,8,0.3258,0.3,1.6875
1503,3,fish,TRUE,1147,2.3600000000000136,test,134,521.808,0,8,0.2625,0.3,1.6668
1503,24,shop,TRUE,2003,3.5679999999999836,test,135,525.376,0,7,0.2949,0.3,1.6361
1503,19,wheel,TRUE,876,2.2000000000000455,test,136,527.576,0,8,0.3047,0.3,1.5921
1503,12,book,TRUE,1724,3.0879999999999654,test,137,530.664,0,12,0.3797,0.3,1.544
1503,13,song,TRUE,1915,2.9429999999999836,test,138,533.607,0,8,0.3,0.3,1.6254
1503,5,office,TRUE,1244,2.5850000000000364,test,139,536.192,0,5,0.1527,0.3,1.6154
1503,18,friend,TRUE,972,2.2630000000000337,test,140,538.455,0,5,0.1512,0.3,1.6191
1503,23,pain,TRUE,1060,2.199999999999932,test,141,540.655,0,5,0.1512,0.3,1.6112
1503,25,language,TRUE,795,5.639999999999986,test,142,546.295,0,5,0.1512,0.3,1.5639
1503,10,song,FALSE,1044,2.025000000000091,test,143,548.32,4,5,0.248,0.3,1.5396
1503,22,fruit,TRUE,2220,6.830999999999904,test,144,555.151,0,6,0.3094,0.3,1.561
1503,9,police,TRUE,1883,3.3050000000000637,test,145,558.456,0,5,0.2012,0.3,1.5782
1503,12,book,TRUE,2100,3.31899999999996,test,146,561.775,0,13,0.3965,0.3,1.5081
1503,22,fruit,TRUE,1386,2.5850000000000364,test,147,564.36,0,7,0.309,0.3,1.4022
1503,24,shop,TRUE,1275,2.7590000000000146,test,148,567.119,0,8,0.2844,0.3,1.534
1503,11,chicken,TRUE,1050,5.480000000000018,test,149,572.599,0,5,0.1512,0.3,1.57
1503,21,color,TRUE,1755,3.5839999999999463,test,150,576.183,0,6,0.275,0.3,1.5517
1503,1,enemy,TRUE,1460,4.816000000000031,test,151,580.999,0,9,0.3254,0.3,1.5426
1503,12,book,TRUE,1251,2.480000000000018,test,152,583.479,0,14,0.3961,0.3,1.4945
1503,17,holidays,TRUE,1179,3.367999999999938,test,153,586.847,0,5,0.1512,0.3,1.5715
1503,15,thanks,TRUE,1404,2.759999999999991,test,154,589.607,0,6,0.225,0.3,1.5407
1503,19,wheel,TRUE,5427,6.888000000000034,test,155,596.495,0,9,0.3223,0.3,1.5354
1503,7,eye,TRUE,883,1.94399999999996,test,156,598.439,0,6,0.2008,0.3,1.5607
1503,13,song,TRUE,885,2.4809999999999945,test,157,600.92,0,9,0.2629,0.3,1.5537
1503,22,fruit,TRUE,1194,2.4470000000000027,test,158,603.367,0,8,0.3086,0.3,1.5149
1503,4,pants,TRUE,1755,3.26400000000001,test,159,606.631,0,6,0.2508,0.3,1.5571
1503,6,monkey,TRUE,1467,3.080000000000041,test,160,609.711,0,5,0.1512,0.3,1.566
1503,10,cloud,TRUE,3092,4.432000000000016,test,161,614.143,0,6,0.2977,0.3,1.5413
1503,21,color,TRUE,1059,2.41599999999994,test,162,616.559,0,7,0.2254,0.3,1.5303
1503,12,book,TRUE,1036,2.2080000000000837,test,163,618.767,0,15,0.3957,0.3,1.5174
1503,2,beer,TRUE,956,2.2239999999999327,test,164,620.991,0,5,0.1512,0.3,1.5668
1503,10,cloud,TRUE,3187,4.6159999999999854,test,165,625.607,0,7,0.3473,0.3,1.406
1503,19,wheel,TRUE,875,2.2480000000000473,test,166,627.855,0,10,0.2727,0.3,1.5109
1503,10,cloud,TRUE,923,2.159999999999968,test,167,630.015,0,8,0.3469,0.3,1.305
1503,14,voice,TRUE,1715,2.94399999999996,test,168,632.959,0,9,0.2996,0.3,1.5296
1503,1,enemy,TRUE,4213,5.736000000000104,test,169,638.695,0,10,0.3258,0.3,1.5183
1503,16,work,TRUE,1260,2.439999999999941,test,170,641.135,0,7,0.2449,0.3,1.5407
1503,20,bike,TRUE,1420,2.7040000000000646,test,171,643.839,0,5,0.1754,0.3,1.5402
1503,10,cloud,TRUE,2843,4.247999999999934,test,172,648.087,0,9,0.3965,0.3,1.3608
1503,22,fruit,TRUE,1019,2.240000000000009,test,173,650.327,0,9,0.259,0.3,1.5059
1503,10,cloud,TRUE,1090,2.5679999999999836,test,174,652.895,0,10,0.3961,0.3,1.2956
1503,12,book,TRUE,1003,2.271000000000072,test,175,655.166,0,16,0.3523,0.3,1.5012
1503,8,music,TRUE,1004,2.4329999999999927,test,176,657.599,0,5,0.1512,0.3,1.5396
1503,24,shop,TRUE,1540,3.1119999999999663,test,177,660.711,0,9,0.2848,0.3,1.5299
1503,10,cloud,TRUE,995,2.270999999999958,test,178,662.982,0,11,0.3957,0.3,1.287
1503,4,pants,TRUE,867,2.1200000000000045,test,179,665.102,0,7,0.2262,0.3,1.4382
1503,9,police,TRUE,1315,2.9360000000000355,test,180,668.038,0,6,0.1969,0.3,1.4554
1503,1,enemy,TRUE,1956,3.20799999999997,test,181,671.246,0,11,0.3262,0.3,1.4091
1503,10,cloud,TRUE,965,2.1760000000000446,test,182,673.422,0,12,0.3461,0.3,1.2458
1503,3,fish,TRUE,3428,4.696000000000026,test,183,678.118,0,9,0.2629,0.3,1.4394
1503,14,voice,TRUE,1315,2.6409999999999627,test,184,680.759,0,10,0.2719,0.3,1.4173
1503,15,thanks,TRUE,1220,2.4950000000000045,test,185,683.254,0,7,0.2246,0.3,1.3631
1503,16,work,TRUE,964,2.183999999999969,test,186,685.438,0,8,0.2211,0.3,1.349
1503,24,shop,TRUE,2093,3.8239999999999554,test,187,689.262,0,10,0.2852,0.3,1.3304
1503,1,enemy,TRUE,915,2.4960000000000946,test,188,691.758,0,12,0.325,0.3,1.2793
1503,13,song,TRUE,1755,2.9039999999999964,test,189,694.662,0,10,0.2633,0.3,1.3201
1503,10,cloud,TRUE,1803,3.0720000000000027,test,190,697.734,0,13,0.3465,0.3,1.1919
1503,12,book,TRUE,1218,2.47199999999998,test,191,700.206,0,17,0.3434,0.3,1.2653
1503,3,fish,TRUE,1069,2.2719999999999345,test,192,702.478,0,10,0.2383,0.3,1.2472
1503,21,color,TRUE,995,2.288000000000011,test,193,704.766,0,8,0.1883,0.3,1.2733
1503,19,wheel,TRUE,1274,2.6639999999999873,test,194,707.43,0,11,0.2723,0.3,1.2743
1503,24,shop,TRUE,1099,2.688000000000102,test,195,710.118,0,11,0.2848,0.3,1.2166
1503,1,enemy,TRUE,1972,3.4079999999999018,test,196,713.526,0,13,0.3746,0.3,1.2118
1503,10,cloud,TRUE,1011,2.576000000000022,test,197,716.102,0,14,0.3094,0.3,1.1893
1503,1,enemy,TRUE,939,2.3279999999999745,test,198,718.43,0,14,0.3742,0.3,1.1829
1503,22,fruit,TRUE,955,2.2800000000000864,test,199,720.71,0,10,0.2469,0.3,1.2636
1504,6,monkey,TRUE,2467,4.288,study,1,4.288,0,1,0.3,0.3,Inf
1504,6,monkey,TRUE,3932,5.795,test,2,10.083,0,2,0.3,0.3,1.9108
1504,8,music,TRUE,1648,3.174999999999999,study,3,13.258,0,1,0.3,0.3,Inf
1504,8,music,TRUE,837,2.5860000000000003,test,4,15.844,0,2,0.3,0.3,1.7142
1504,10,cloud,TRUE,1557,3.6240000000000006,study,5,19.468,0,1,0.3,0.3,Inf
1504,19,wheel,TRUE,1750,3.532,study,6,23,0,1,0.3,0.3,Inf
1504,10,cloud,TRUE,966,2.4909999999999997,test,7,25.491,0,2,0.3,0.3,2.1046
1504,19,monkey,FALSE,780,3.5249999999999986,test,8,29.016,5,2,0.3,0.3,2.0132
1504,13,song,TRUE,2384,10.542000000000002,study,9,39.558,0,1,0.3,0.3,Inf
1504,24,shop,TRUE,1656,3.246000000000002,study,10,42.804,0,1,0.3,0.3,Inf
1504,13,cloud,FALSE,1791,3.2590000000000003,test,11,46.063,4,2,0.3,0.3,2.3182
1504,24,wheel,FALSE,3258,8.104999999999997,test,12,54.168,4,2,0.3,0.3,2.2896
1504,6,wheel,FALSE,4252,9.197000000000003,test,13,63.365,5,3,0.3496,0.3,2.4775
1504,8,monkey,FALSE,7408,12.524999999999999,test,14,75.89,5,3,0.3496,0.3,2.5333
1504,10,cloud,TRUE,4201,9.805999999999997,test,15,85.696,0,3,0.3496,0.3,2.4802
1504,19,wheel,TRUE,4768,6.245999999999995,test,16,91.942,0,3,0.3496,0.3,2.5467
1504,13,monkey,FALSE,3196,5.4550000000000125,test,17,97.397,4,3,0.3496,0.3,2.3603
1504,6,wheel,FALSE,6173,12.390999999999991,test,18,109.788,5,4,0.3992,0.3,2.4168
1504,24,song,FALSE,5964,10.510000000000005,test,19,120.298,3,3,0.3496,0.3,2.5424
1504,8,song,FALSE,1336,5.8999999999999915,test,20,126.198,5,4,0.3992,0.3,2.6255
1504,10,cloud,TRUE,2556,7.355000000000004,test,21,133.553,0,4,0.3625,0.3,2.4948
1504,19,shop,FALSE,6606,8.074000000000012,test,22,141.627,4,4,0.3992,0.3,2.4869
1504,6,monkey,TRUE,1585,6.873999999999995,test,23,148.501,0,5,0.3988,0.3,2.5598
1504,13,wheel,FALSE,2496,4.350999999999999,test,24,152.852,5,4,0.3992,0.3,2.5257
1504,8,music,TRUE,1571,7.760999999999996,test,25,160.613,0,5,0.3988,0.3,2.4469
1504,24,song,FALSE,7292,8.957999999999998,test,26,169.571,3,4,0.3992,0.3,2.4632
1504,19,wheel,TRUE,2126,6.938999999999993,test,27,176.51,0,5,0.3988,0.3,2.5052
1504,13,song,TRUE,3785,4.8629999999999995,test,28,181.373,0,5,0.4488,0.3,2.317
1504,22,fruit,TRUE,2161,3.7319999999999993,study,29,185.105,0,1,0.3,0.3,Inf
1504,25,language,TRUE,1277,4.1440000000000055,study,30,189.249,0,1,0.3,0.3,Inf
1504,22,song,FALSE,4866,9.373999999999995,test,31,198.623,5,2,0.3,0.3,2.1573
1504,25,?,FALSE,184,4.197000000000003,test,32,202.82,8,2,0.3,0.3,2.6362
1504,24,shop,TRUE,5814,10.622000000000014,test,33,213.442,0,5,0.4488,0.3,2.5786
1504,13,song,TRUE,4287,5.580999999999989,test,34,219.023,0,6,0.4523,0.3,2.5877
1504,10,cloud,TRUE,1296,2.5579999999999927,test,35,221.581,0,5,0.3559,0.3,2.6311
1504,6,monkey,TRUE,1421,3.007000000000005,test,36,224.588,0,6,0.3984,0.3,2.6092
1504,8,music,TRUE,831,3.1110000000000184,test,37,227.699,0,6,0.3984,0.3,2.5277
1504,24,shop,TRUE,2491,3.9879999999999995,test,38,231.687,0,6,0.4586,0.3,2.3414
1504,19,shop,FALSE,5547,7.190999999999974,test,39,238.878,4,6,0.4484,0.3,2.424
1504,22,fruit,TRUE,2475,7.611000000000018,test,40,246.489,0,3,0.3066,0.3,2.4298
1504,13,song,TRUE,1269,14.095999999999975,test,41,260.585,0,7,0.4496,0.3,2.3315
1504,19,shop,FALSE,1759,3.313000000000045,test,42,263.898,4,7,0.4543,0.3,2.4036
1504,25,langauge,FALSE,1560,6.739999999999952,test,43,270.638,1,3,0.3496,0.3,2.5273
1504,24,shop,TRUE,4340,9.305000000000007,test,44,279.943,0,7,0.459,0.3,2.5514
1504,18,friend,TRUE,2304,5.545000000000016,study,45,285.488,0,1,0.3,0.3,Inf
1504,14,voice,TRUE,3820,5.9010000000000105,study,46,291.389,0,1,0.3,0.3,Inf
1504,18,friend,TRUE,1194,2.6829999999999927,test,47,294.072,0,2,0.3,0.3,2.3778
1504,14,voice,TRUE,1727,23.512,test,48,317.584,0,2,0.3,0.3,2.2058
1504,19,wheel,TRUE,3268,4.617000000000019,test,49,322.201,0,8,0.5008,0.3,2.5625
1504,13,cloud,FALSE,1163,2.9259999999999877,test,50,325.127,4,8,0.4992,0.3,2.6162
1504,6,fruit,FALSE,2594,7.385999999999967,test,51,332.513,6,7,0.4176,0.3,2.6745
1504,25,language,TRUE,1418,11.731000000000051,test,52,344.244,0,4,0.3492,0.3,2.6704
1504,24,shop,TRUE,1633,3.1059999999999945,test,53,347.35,0,8,0.4586,0.3,2.707
1504,19,song ,FALSE,2378,9.80699999999996,test,54,357.157,5,9,0.509,0.3,2.6123
1504,13,song,TRUE,2474,12.715000000000032,test,55,369.872,0,9,0.4988,0.3,2.7976
1504,8,music,TRUE,1019,2.4399999999999977,test,56,372.312,0,7,0.3488,0.3,2.8804
1504,14,wheel,FALSE,4354,8.289999999999964,test,57,380.602,5,3,0.3496,0.3,2.7115
1504,18,friend,TRUE,1247,6.067000000000007,test,58,386.669,0,3,0.2504,0.3,2.8172
1504,19,shop,FALSE,2839,6.930000000000007,test,59,393.599,4,10,0.5586,0.3,2.6065
1504,22,fruit,TRUE,6045,12.75200000000001,test,60,406.351,0,4,0.3562,0.3,2.7671
1504,19,wheel,TRUE,3232,4.814000000000021,test,61,411.165,0,11,0.5832,0.3,2.5831
1504,13,cloud,FALSE,1670,3.9939999999999714,test,62,415.159,4,10,0.5313,0.3,2.7121
1504,10,cloud,TRUE,2742,7.588999999999999,test,63,422.748,0,6,0.35,0.3,2.8599
1504,19,wheel,TRUE,1456,2.891999999999996,test,64,425.64,0,12,0.5828,0.3,2.4182
1504,6,fruit,FALSE,989,2.5749999999999886,test,65,428.215,6,8,0.4664,0.3,2.7834
1504,24,shop,TRUE,3940,8.838000000000022,test,66,437.053,0,9,0.4934,0.3,2.7899
1504,13,song,TRUE,2803,4.293000000000006,test,67,441.346,0,11,0.5316,0.3,2.5803
1504,14,voice,TRUE,2668,4.0919999999999845,test,68,445.438,0,4,0.3438,0.3,2.7477
1504,19,shop,FALSE,4189,5.562999999999988,test,69,451.001,4,13,0.5957,0.3,2.4116
1504,6,monkey,TRUE,2151,7.177999999999997,test,70,458.179,0,9,0.423,0.3,2.5971
1504,24,shop,TRUE,3712,5.298000000000002,test,71,463.477,0,10,0.518,0.3,2.5191
1504,22,voice,FALSE,2469,3.9840000000000373,test,72,467.461,5,5,0.373,0.3,2.6719
1504,19,wheel,TRUE,1158,6.0190000000000055,test,73,473.48,0,14,0.5953,0.3,2.5264
1504,25,language,TRUE,1069,3.3489999999999895,test,74,476.829,0,5,0.2996,0.3,2.751
1504,13,cloud,FALSE,5752,7.7590000000000146,test,75,484.588,4,12,0.5438,0.3,2.5928
1504,24,shop,TRUE,3017,7.8729999999999905,test,76,492.461,0,11,0.5426,0.3,2.5269
1504,19,wheel,TRUE,1510,2.975999999999999,test,77,495.437,0,15,0.5457,0.3,2.3607
1504,13,song,TRUE,1390,2.5649999999999977,test,78,498.002,0,13,0.5434,0.3,2.2362
1504,15,thanks,TRUE,1651,3.447999999999979,study,79,501.45,0,1,0.3,0.3,Inf
1504,24,shop,TRUE,3897,5.999000000000024,test,80,507.449,0,12,0.543,0.3,2.1456
1504,15,wheel,FALSE,3548,9.060999999999979,test,81,516.51,5,2,0.3,0.3,2.2616
1504,16,work,TRUE,1723,6.793000000000006,study,82,523.303,0,1,0.3,0.3,Inf
1504,22,work,FALSE,6864,8.080000000000041,test,83,531.383,5,6,0.3734,0.3,2.4247
1504,16,work,TRUE,1143,5.967999999999961,test,84,537.351,0,2,0.3,0.3,2.5474
1504,24,shop,TRUE,2099,3.5710000000000264,test,85,540.922,0,13,0.5426,0.3,2.4458
1504,13,song,TRUE,1207,2.3940000000000055,test,86,543.316,0,14,0.543,0.3,2.5158
1504,14,thanks,FALSE,3177,8.717999999999961,test,87,552.034,6,5,0.3809,0.3,2.53
1504,10,cloud,TRUE,2013,6.86099999999999,test,88,558.895,0,7,0.3473,0.3,2.498
1504,15,thanks,TRUE,1313,2.6700000000000728,test,89,561.565,0,3,0.2504,0.3,2.3962
1504,19,wheel,TRUE,1329,2.7199999999999136,test,90,564.285,0,16,0.4961,0.3,2.4576
1504,6,monkey,TRUE,1716,3.2309999999999945,test,91,567.516,0,10,0.4227,0.3,2.4563
1504,24,shop,TRUE,1261,2.8740000000000236,test,92,570.39,0,14,0.5422,0.3,2.3291
1504,12,book,TRUE,943,2.437000000000012,study,93,572.827,0,1,0.3,0.3,Inf
1504,13,cloud,FALSE,3896,6.768000000000029,test,94,579.595,4,15,0.552,0.3,2.3408
1504,12,think,FALSE,3082,9.150999999999954,test,95,588.746,4,2,0.3,0.3,2.4388
1504,16,think,FALSE,4254,14.186000000000035,test,96,602.932,4,3,0.3496,0.3,2.4456
1504,14,work,FALSE,1916,6.6580000000000155,test,97,609.59,4,6,0.3844,0.3,2.5243
1504,13,cloud,FALSE,1216,5.803999999999974,test,98,615.394,4,16,0.6016,0.3,2.4622
1504,24,shop,TRUE,1555,6.336999999999989,test,99,621.731,0,15,0.5043,0.3,2.534
1504,13,song,TRUE,2098,3.5190000000000055,test,100,625.25,0,17,0.6004,0.3,2.1122
1504,17,holidays,TRUE,1360,4.962999999999965,study,101,630.213,0,1,0.3,0.3,Inf
1504,22,fruit,TRUE,2449,3.785000000000082,test,102,633.998,0,7,0.373,0.3,2.4576
1504,17,wheel,FALSE,3287,4.781999999999925,test,103,638.78,8,2,0.3,0.3,2.217
1504,12,think,FALSE,6355,13.94500000000005,test,104,652.725,4,3,0.3496,0.3,2.4743
1504,13,song,TRUE,1261,5.789999999999964,test,105,658.515,0,18,0.6,0.3,2.6087
1504,16,work,TRUE,1010,2.1510000000000673,test,106,660.666,0,4,0.3,0.3,2.6344
1504,8,music,TRUE,1130,2.4969999999999573,test,107,663.163,0,8,0.2992,0.3,2.5577
1504,1,enemy,TRUE,1162,3.034999999999968,study,108,666.198,0,1,0.3,0.3,Inf
1504,7,jicho,FALSE,1944,3.6420000000000528,study,109,669.84,5,1,0.3,0.3,Inf
1504,1,work,FALSE,4264,11.145999999999958,test,110,680.986,5,2,0.3,0.3,2.2999
1504,7,eye,TRUE,1730,6.185000000000059,test,111,687.171,0,2,0.3,0.3,2.6873
1504,13,song,TRUE,1181,2.269999999999982,test,112,689.441,0,19,0.5996,0.3,2.5556
1504,17,book,FALSE,1973,4.05499999999995,test,113,693.496,7,3,0.3496,0.3,2.4528
1504,12,book,TRUE,1565,6.293999999999983,test,114,699.79,0,4,0.3492,0.3,2.5237
1504,6,monkey,TRUE,1378,2.90300000000002,test,115,702.693,0,11,0.4223,0.3,2.5631
1504,14,voice,TRUE,3921,6.980000000000018,test,116,709.673,0,7,0.4277,0.3,2.5071
1504,13,song,TRUE,1008,2.0639999999999645,test,117,711.737,0,20,0.55,0.3,2.3301
1504,19,wheel,TRUE,1132,3.2100000000000364,test,118,714.947,0,17,0.4465,0.3,2.4741
1504,24,shop,TRUE,1718,3.094000000000051,test,119,718.041,0,16,0.4547,0.3,2.4566
1504,5,office,TRUE,1978,3.8199999999999363,study,120,721.861,0,1,0.3,0.3,Inf
1505,10,cloud,TRUE,21212,23.121,study,1,23.121,0,1,0.3,0.3,Inf
1505,10,cloud,TRUE,1967,4.147000000000002,test,2,27.268,0,2,0.3,0.3,2.8859
1505,21,color,TRUE,14366,22.857,study,3,50.125,0,1,0.3,0.3,Inf
1505,21,color,TRUE,617,2.960000000000001,test,4,53.085,0,2,0.3,0.3,2.8565
1505,2,beer,TRUE,10223,12.345999999999997,study,5,65.431,0,1,0.3,0.3,Inf
1505,20,bike,TRUE,16665,18.48100000000001,study,6,83.912,0,1,0.3,0.3,Inf
1505,2,beer,TRUE,1272,2.6509999999999962,test,7,86.563,0,2,0.3,0.3,3.097
1505,20,bike,TRUE,1499,2.950000000000003,test,8,89.513,0,2,0.3,0.3,2.7975
1505,10,cloud,TRUE,1285,2.958999999999989,test,9,92.472,0,3,0.2504,0.3,2.5298
1505,11,chicken,TRUE,12432,16.60000000000001,study,10,109.072,0,1,0.3,0.3,Inf
1505,21,color,TRUE,2380,5.319999999999993,test,11,114.392,0,3,0.2746,0.3,2.4535
1505,11,chicken,TRUE,2100,3.780000000000001,test,12,118.172,0,2,0.3,0.3,2.8249
1505,13,song,TRUE,10225,12.717000000000013,study,13,130.889,0,1,0.3,0.3,Inf
1505,22,fruit,TRUE,9617,12.099999999999994,study,14,142.989,0,1,0.3,0.3,Inf
1505,13,song,TRUE,2036,3.468999999999994,test,15,146.458,0,2,0.3,0.3,2.9208
1505,22,fruit,TRUE,1469,3.0800000000000125,test,16,149.538,0,2,0.3,0.3,2.5785
1505,2,beer,TRUE,1368,3.4599999999999795,test,17,152.998,0,3,0.2504,0.3,2.5221
1505,20,bike,TRUE,1605,3.1100000000000136,test,18,156.108,0,3,0.2504,0.3,2.5324
1505,25,language,TRUE,13043,15.752999999999986,study,19,171.861,0,1,0.3,0.3,Inf
1505,11,chicken,TRUE,1218,2.950000000000017,test,20,174.811,0,3,0.2504,0.3,2.4378
1505,25,language,TRUE,1389,3.3100000000000023,test,21,178.121,0,2,0.3,0.3,2.7073
1505,7,eye,TRUE,24499,25.542,study,22,203.663,0,1,0.3,0.3,Inf
1505,13,song,TRUE,4808,6.218999999999994,test,23,209.882,0,3,0.3496,0.3,2.4713
1505,7,eye,TRUE,1708,2.9000000000000057,test,24,212.782,0,2,0.3,0.3,3.1222
1505,22,fruit,TRUE,2174,3.719999999999999,test,25,216.502,0,3,0.2559,0.3,2.5421
1505,15,thanks,TRUE,12605,14.062999999999988,study,26,230.565,0,1,0.3,0.3,Inf
1505,25,language,TRUE,3648,5.489000000000004,test,27,236.054,0,3,0.3496,0.3,2.4207
1505,15,thanks,TRUE,1568,2.9209999999999923,test,28,238.975,0,2,0.3,0.3,2.7393
1505,24,shop,TRUE,18555,20.657999999999987,study,29,259.633,0,1,0.3,0.3,Inf
1505,13,song,TRUE,1328,2.490000000000009,test,30,262.123,0,4,0.3,0.3,2.5153
1505,24,shop,TRUE,1455,2.7590000000000146,test,31,264.882,0,2,0.3,0.3,2.8667
1505,7,eye,TRUE,2283,3.5009999999999764,test,32,268.383,0,3,0.2504,0.3,2.4149
1505,16,work,TRUE,23075,24.399,study,33,292.782,0,1,0.3,0.3,Inf
1505,25,language,TRUE,1397,3.1200000000000045,test,34,295.902,0,4,0.3,0.3,2.5771
1505,16,work,TRUE,936,2.3500000000000227,test,35,298.252,0,2,0.3,0.3,3.0029
1505,15,thanks,TRUE,7191,9.668999999999983,test,36,307.921,0,3,0.3496,0.3,2.4905
1505,12,book,TRUE,27885,29.168999999999983,study,37,337.09,0,1,0.3,0.3,Inf
1505,24,shop,TRUE,1633,2.9500000000000455,test,38,340.04,0,3,0.2504,0.3,2.6122
1505,12,book,TRUE,1709,3.089999999999975,test,39,343.13,0,2,0.3,0.3,3.1313
1505,21,color,TRUE,6965,8.471000000000004,test,40,351.601,0,4,0.3,0.3,2.5465
1505,15,thanks,TRUE,1406,2.829999999999984,test,41,354.431,0,4,0.3,0.3,2.4984
1505,16,work,TRUE,3100,4.310000000000002,test,42,358.741,0,3,0.3496,0.3,2.4494
1505,8,music,TRUE,21011,22.75,study,43,381.491,0,1,0.3,0.3,Inf
1505,18,friend,TRUE,7095,9.003000000000043,study,44,390.494,0,1,0.3,0.3,Inf
1505,8,music,TRUE,2515,4.06899999999996,test,45,394.563,0,2,0.3,0.3,3.122
1505,18,friend,TRUE,1346,2.980000000000018,test,46,397.543,0,2,0.3,0.3,2.4622
1505,12,book,TRUE,4299,6.099999999999966,test,47,403.643,0,3,0.3004,0.3,2.4416
1505,16,work,TRUE,1833,3.090000000000032,test,48,406.733,0,4,0.3,0.3,2.4325
1505,6,monkey,TRUE,9331,11.274999999999977,study,49,418.008,0,1,0.3,0.3,Inf
1505,19,wheel,TRUE,19995,21.41300000000001,study,50,439.421,0,1,0.3,0.3,Inf
1505,6,monkey,TRUE,2240,3.9209999999999923,test,51,443.342,0,2,0.3,0.3,3.1462
1505,19,wheel,TRUE,1721,3.240000000000009,test,52,446.582,0,2,0.3,0.3,2.9371
1505,8,music,TRUE,1252,2.740000000000009,test,53,449.322,0,3,0.2504,0.3,2.4264
1505,18,friend,TRUE,1235,3.0600000000000023,test,54,452.382,0,3,0.2504,0.3,2.4203
1505,1,enemy,TRUE,13490,17.918999999999983,study,55,470.301,0,1,0.3,0.3,Inf
1505,10,cloud,TRUE,3157,4.6200000000000045,test,56,474.921,0,4,0.2508,0.3,2.5202
1505,1,enemy,TRUE,1511,3.6000000000000227,test,57,478.521,0,2,0.3,0.3,2.8459
1505,23,pain,TRUE,12142,14.897999999999968,study,58,493.419,0,1,0.3,0.3,Inf
1505,6,monkey,TRUE,1568,3.1790000000000305,test,59,496.598,0,3,0.2504,0.3,2.4049
1505,23,pain,TRUE,1157,2.7099999999999795,test,60,499.308,0,2,0.3,0.3,2.6832
1505,19,wheel,TRUE,2060,3.430000000000007,test,61,502.738,0,3,0.2527,0.3,2.4213
1505,21,color,TRUE,1877,3.2900000000000205,test,62,506.028,0,5,0.2746,0.3,2.5098
1505,9,police,TRUE,14918,17.345000000000027,study,63,523.373,0,1,0.3,0.3,Inf
1505,13,song,TRUE,2474,3.7799999999999727,test,64,527.153,0,5,0.2934,0.3,2.513
1505,9,police,TRUE,1296,3.2189999999999372,test,65,530.372,0,2,0.3,0.3,2.7967
1505,1,enemy,TRUE,1657,4.1299999999999955,test,66,534.502,0,3,0.2504,0.3,2.4153
1505,12,book,TRUE,3731,6.790000000000077,test,67,541.292,0,4,0.35,0.3,2.5051
1505,22,fruit,TRUE,4101,5.669999999999959,test,68,546.962,0,4,0.3055,0.3,2.5428
1505,20,bike,TRUE,2031,3.509999999999991,test,69,550.472,0,4,0.2008,0.3,2.5512
1505,23,pain,TRUE,1467,2.909999999999968,test,70,553.382,0,3,0.2504,0.3,2.3995
1505,25,language,TRUE,2494,4.1400000000001,test,71,557.522,0,5,0.2965,0.3,2.5283
1505,11,chicken,TRUE,1396,2.8999999999999773,test,72,560.422,0,4,0.2008,0.3,2.5424
1505,2,beer,TRUE,1155,2.5799999999999272,test,73,563.002,0,4,0.2008,0.3,2.543
1505,3,fish,TRUE,8895,13.278999999999996,study,74,576.281,0,1,0.3,0.3,Inf
1505,14,voice,TRUE,8421,11.629000000000019,study,75,587.91,0,1,0.3,0.3,Inf
1505,3,fish,TRUE,1274,2.6000000000000227,test,76,590.51,0,2,0.3,0.3,2.9234
1505,14,voice,TRUE,1220,3.0389999999999873,test,77,593.549,0,2,0.3,0.3,2.5182
1505,9,police,TRUE,2480,5.040000000000077,test,78,598.589,0,3,0.2746,0.3,2.5319
1505,12,book,TRUE,2329,3.7299999999999045,test,79,602.319,0,5,0.3496,0.3,2.4998
1505,15,thanks,TRUE,2333,3.810000000000059,test,80,606.129,0,5,0.2746,0.3,2.4936
1505,17,holidays,TRUE,21181,23.506999999999948,study,81,629.636,0,1,0.3,0.3,Inf
1505,22,fruit,TRUE,1186,2.689000000000078,test,82,632.325,0,5,0.2582,0.3,2.4647
1505,17,holidays,TRUE,1341,3.3309999999999036,test,83,635.656,0,2,0.3,0.3,2.9638
1505,5,office,TRUE,8040,9.743000000000052,study,84,645.399,0,1,0.3,0.3,Inf
1505,3,fish,TRUE,1443,2.7799999999999727,test,85,648.179,0,3,0.2504,0.3,2.4378
1505,5,office,TRUE,1285,2.82000000000005,test,86,650.999,0,2,0.3,0.3,2.434
1505,14,voice,TRUE,2384,3.691000000000031,test,87,654.69,0,3,0.2746,0.3,2.4831
1505,7,eye,TRUE,15246,16.18999999999994,test,88,670.88,0,4,0.2883,0.3,2.5173
1505,16,work,TRUE,5370,6.576999999999998,test,89,677.457,0,5,0.3496,0.3,2.5162
1505,4,pants,TRUE,12528,14.211999999999989,study,90,691.669,0,1,0.3,0.3,Inf
1505,17,?,FALSE,60000,60.63099999999997,test,91,752.3,8,3,0.3496,0.3,2.4576
1509,23,pain,TRUE,1858,3.431,study,1,3.431,0,1,0.3,0.3,Inf
1509,23,pain,TRUE,1079,2.6159999999999997,test,2,6.047,0,2,0.3,0.3,1.8205
1509,20,bike,TRUE,2558,3.896,study,3,9.943,0,1,0.3,0.3,Inf
1509,20,bike,TRUE,843,2.4559999999999995,test,4,12.399,0,2,0.3,0.3,1.8041
1509,3,fish,TRUE,3425,4.682,study,5,17.081,0,1,0.3,0.3,Inf
1509,8,music,TRUE,2267,4.943999999999999,study,6,22.025,0,1,0.3,0.3,Inf
1509,3,fish,TRUE,2237,3.9760000000000026,test,7,26.001,0,2,0.3,0.3,2.2726
1509,8,music,TRUE,1229,2.7119999999999997,test,8,28.713,0,2,0.3,0.3,2.2278
1509,13,song,TRUE,7551,8.729999999999997,study,9,37.443,0,1,0.3,0.3,Inf
1509,17,holidays,TRUE,2186,4.9040000000000035,study,10,42.347,0,1,0.3,0.3,Inf
1509,13,song,TRUE,5033,6.192999999999998,test,11,48.54,0,2,0.3,0.3,2.4896
1509,17,holidays,TRUE,1100,3.1679999999999993,test,12,51.708,0,2,0.3,0.3,2.3586
1509,23,pain,TRUE,2849,4.015999999999998,test,13,55.724,0,3,0.3465,0.3,2.4263
1509,20,bike,TRUE,971,2.7520000000000024,test,14,58.476,0,3,0.2504,0.3,2.3919
1509,7,eye,TRUE,2092,3.3359999999999985,study,15,61.812,0,1,0.3,0.3,Inf
1509,16,work,TRUE,2708,3.8710000000000093,study,16,65.683,0,1,0.3,0.3,Inf
1509,7,eye,TRUE,907,1.9439999999999884,test,17,67.627,0,2,0.3,0.3,2.1085
1509,16,work,TRUE,1418,2.5560000000000116,test,18,70.183,0,2,0.3,0.3,1.9954
1509,3,holidays,FALSE,3942,6.409999999999997,test,19,76.593,7,3,0.3496,0.3,2.3512
1509,8,music,TRUE,3126,7.789999999999992,test,20,84.383,0,3,0.3496,0.3,2.433
1509,14,voice,TRUE,3574,4.9210000000000065,study,21,89.304,0,1,0.3,0.3,Inf
1509,5,?,FALSE,60000,61.208,study,22,150.512,6,1,0.3,0.3,Inf
1509,14,voice,TRUE,4030,8.50200000000001,test,23,159.014,0,2,0.3,0.3,3.8698
1509,5,eye,FALSE,7391,8.47199999999998,test,24,167.486,5,2,0.3,0.3,3.8727
1509,23,pain,TRUE,1053,5.568000000000012,test,25,173.054,0,4,0.2969,0.3,3.1566
1509,13,fish,FALSE,3664,4.895999999999987,test,26,177.95,4,3,0.3457,0.3,3.0942
1509,17,holidays,TRUE,4223,10.694000000000017,test,27,188.644,0,3,0.3418,0.3,3.136
1509,16,work,TRUE,2470,3.7280000000000086,test,28,192.372,0,3,0.2504,0.3,3.1502
1509,7,eye,TRUE,22556,23.88299999999998,test,29,216.255,0,3,0.3402,0.3,3.1576
1509,3,face,FALSE,8623,9.795000000000016,test,30,226.05,3,4,0.3781,0.3,3.3077
1509,8,music,TRUE,1545,6.1299999999999955,test,31,232.18,0,4,0.3,0.3,3.3445
1509,13,song,TRUE,1193,2.9739999999999895,test,32,235.154,0,4,0.3445,0.3,2.6912
1509,14,eye,FALSE,1254,2.3290000000000077,test,33,237.483,4,3,0.3004,0.3,2.6892
1509,5,office,TRUE,1684,6.420999999999992,test,34,243.904,0,3,0.2871,0.3,2.6941
1509,17,fish,FALSE,11319,12.341999999999985,test,35,256.246,7,4,0.3422,0.3,2.6951
1509,7,eye,TRUE,2810,7.081999999999994,test,36,263.328,0,4,0.3414,0.3,2.7377
1509,3,voice,FALSE,7442,12.258000000000038,test,37,275.586,4,5,0.3785,0.3,2.6384
1509,25,lugha,FALSE,1394,6.536999999999978,study,38,282.123,5,1,0.3,0.3,Inf
1509,1,enemy,TRUE,1117,22.365999999999985,study,39,304.489,0,1,0.3,0.3,Inf
1509,25,language,TRUE,1130,2.7420000000000186,test,40,307.231,0,2,0.3,0.3,2.9424
1509,1,enemy,TRUE,1016,2.6000000000000227,test,41,309.831,0,2,0.3,0.3,2.8177
1509,4,pants,TRUE,5452,7.146999999999991,study,42,316.978,0,1,0.3,0.3,Inf
1509,9,askari,FALSE,1829,3.623999999999967,study,43,320.602,6,1,0.3,0.3,Inf
1509,4,police,FALSE,1120,5.959000000000003,test,44,326.561,5,2,0.3,0.3,2.5152
1509,9,police,TRUE,1029,5.942000000000007,test,45,332.503,0,2,0.3,0.3,2.4579
1509,13,song,TRUE,1465,2.6720000000000255,test,46,335.175,0,5,0.3441,0.3,2.519
1509,20,bike,TRUE,1950,3.1929999999999836,test,47,338.368,0,4,0.2008,0.3,2.5293
1509,3,fish,TRUE,1344,2.4390000000000214,test,48,340.807,0,6,0.3781,0.3,2.4781
1509,17,holidays,TRUE,5205,7.406000000000006,test,49,348.213,0,5,0.3918,0.3,2.4937
1509,7,eye,TRUE,1376,2.3039999999999736,test,50,350.517,0,5,0.341,0.3,2.4625
1509,19,wheel,TRUE,2971,4.2239999999999895,study,51,354.741,0,1,0.3,0.3,Inf
1509,12,book,TRUE,4960,6.23599999999999,study,52,360.977,0,1,0.3,0.3,Inf
1509,19,wheel,TRUE,3598,4.885000000000048,test,53,365.862,0,2,0.3,0.3,2.3221
1509,12,book,TRUE,1110,2.3279999999999745,test,54,368.19,0,2,0.3,0.3,2.3597
1509,25,language,TRUE,976,4.086999999999989,test,55,372.277,0,3,0.2504,0.3,2.5023
1509,1,enemy,TRUE,1376,3.393000000000029,test,56,375.67,0,3,0.2504,0.3,2.5177
1509,14,voice,TRUE,1623,2.783999999999992,test,57,378.454,0,4,0.2945,0.3,2.5123
1509,4,police,FALSE,1581,3.0720000000000027,test,58,381.526,5,3,0.3496,0.3,2.4132
1509,17,holidays,TRUE,2517,7.533999999999992,test,59,389.06,0,6,0.3969,0.3,2.4617
1509,9,police,TRUE,4860,6.156000000000006,test,60,395.216,0,3,0.3496,0.3,2.4717
1509,23,pain,TRUE,1278,2.742999999999995,test,61,397.959,0,5,0.2473,0.3,2.5382
1509,21,color,TRUE,2107,3.8799999999999955,study,62,401.839,0,1,0.3,0.3,Inf
1509,10,cloud,TRUE,4260,5.456000000000017,study,63,407.295,0,1,0.3,0.3,Inf
1509,21,clothes,FALSE,3486,4.7169999999999845,test,64,412.012,5,2,0.3,0.3,2.2543
1509,10,cloud,TRUE,1178,5.723000000000013,test,65,417.735,0,2,0.3,0.3,2.4866
1509,19,wheel,TRUE,5245,6.992999999999995,test,66,424.728,0,3,0.3496,0.3,2.4567
1509,12,bike,FALSE,590,10.98399999999998,test,67,435.712,3,3,0.3496,0.3,2.478
1509,4,pants,TRUE,1616,6.129000000000019,test,68,441.841,0,4,0.3492,0.3,2.5697
1509,9,police,TRUE,2749,4.096000000000004,test,69,445.937,0,4,0.375,0.3,2.5001
1509,5,office,TRUE,1850,3.1829999999999927,test,70,449.12,0,4,0.2375,0.3,2.5626
1509,8,music,TRUE,1050,2.3319999999999936,test,71,451.452,0,5,0.2504,0.3,2.529
1509,3,fish,TRUE,3536,4.550999999999988,test,72,456.003,0,7,0.4277,0.3,2.4982
1509,21,cloud,FALSE,3450,5.506000000000029,test,73,461.509,3,3,0.3496,0.3,2.3605
1509,19,wheel,TRUE,7344,11.978000000000009,test,74,473.487,0,4,0.3992,0.3,2.4365
1509,17,holidays,TRUE,1408,5,test,75,478.487,0,7,0.3965,0.3,2.5467
1509,12,book,TRUE,2478,3.839999999999975,test,76,482.327,0,4,0.3469,0.3,2.5184
1509,10,cloud,TRUE,1225,2.336999999999989,test,77,484.664,0,3,0.2504,0.3,2.5556
1509,3,fish,TRUE,1499,2.5500000000000114,test,78,487.214,0,8,0.3781,0.3,2.4202
1509,13,cloud,FALSE,1025,2.1920000000000073,test,79,489.406,4,6,0.3445,0.3,2.5306
1509,9,police,TRUE,1833,6.524999999999977,test,80,495.931,0,5,0.373,0.3,2.4041
1509,19,wheel,TRUE,1259,2.879000000000019,test,81,498.81,0,5,0.3988,0.3,2.3425
1509,7,?,FALSE,60000,60.84800000000001,test,82,559.658,3,6,0.3414,0.3,2.4962
1509,21,cloud,FALSE,2952,7.463999999999942,test,83,567.122,3,4,0.3992,0.3,3.0171
1509,4,pants,TRUE,1930,6.595000000000027,test,84,573.717,0,5,0.2996,0.3,2.717
1509,19,wheel,TRUE,1264,2.4640000000000555,test,85,576.181,0,6,0.3984,0.3,2.5565
1509,16,work,TRUE,4246,5.348999999999933,test,86,581.53,0,4,0.3,0.3,2.6441
1509,12,fish,FALSE,3598,4.68100000000004,test,87,586.211,4,5,0.3965,0.3,2.5278
1509,21,cloud,FALSE,3785,8.323999999999955,test,88,594.535,3,5,0.4301,0.3,2.4482
1509,17,holidays,TRUE,4082,11.018000000000029,test,89,605.553,0,8,0.4203,0.3,2.5964
1509,9,police,TRUE,1369,2.7129999999999654,test,90,608.266,0,6,0.3234,0.3,2.5784
1509,22,fruit,TRUE,1928,4.1440000000000055,study,91,612.41,0,1,0.3,0.3,Inf
1509,18,friend,TRUE,1656,3.3600000000000136,study,92,615.77,0,1,0.3,0.3,Inf
1509,22,fruit,TRUE,1483,2.7670000000000528,test,93,618.537,0,2,0.3,0.3,2.1308
1509,18,friend,TRUE,2201,3.4969999999999573,test,94,622.034,0,2,0.3,0.3,2.0226
1509,21,color,TRUE,1780,2.9990000000000236,test,95,625.033,0,6,0.4297,0.3,2.4019
1509,12,book,TRUE,4863,7.995999999999981,test,96,633.029,0,6,0.4156,0.3,2.488
1509,15,thanks,TRUE,2291,3.9600000000000364,study,97,636.989,0,1,0.3,0.3,Inf
1509,2,beer,TRUE,2549,7.375999999999976,study,98,644.365,0,1,0.3,0.3,Inf
1509,15,thanks,TRUE,1643,3.0960000000000036,test,99,647.461,0,2,0.3,0.3,2.3717
1509,2,beer,TRUE,876,2.63900000000001,test,100,650.1,0,2,0.3,0.3,2.3231
1509,14,voice,TRUE,5146,6.187000000000012,test,101,656.287,0,5,0.2957,0.3,2.5208
1509,19,wheel,TRUE,1068,2.447999999999979,test,102,658.735,0,7,0.3488,0.3,2.4892
1509,17,holidays,TRUE,1100,3.216000000000008,test,103,661.951,0,9,0.3988,0.3,2.4969
1509,16,work,TRUE,910,2.048000000000002,test,104,663.999,0,5,0.2504,0.3,2.4762
1509,22,fruit,TRUE,2721,3.9589999999999463,test,105,667.958,0,3,0.3371,0.3,2.3683
1509,18,friend,TRUE,809,2.3210000000000264,test,106,670.279,0,3,0.2504,0.3,2.4016
1509,13,song,TRUE,3408,7.755999999999972,test,107,678.035,0,7,0.3449,0.3,2.4975
1509,21,color,TRUE,4969,6.139999999999986,test,108,684.175,0,7,0.4309,0.3,2.4536
1509,12,fish,FALSE,5875,7.331000000000017,test,109,691.506,4,7,0.434,0.3,2.5251
1509,15,thanks,TRUE,1661,6.290000000000077,test,110,697.796,0,3,0.2504,0.3,2.3743
1509,7,book,FALSE,11365,12.535999999999945,test,111,710.332,4,7,0.3457,0.3,2.5192
1509,2,beer,TRUE,982,5.477999999999952,test,112,715.81,0,3,0.2504,0.3,2.5665
1509,3,voice,FALSE,38078,60.173,test,113,775.983,4,9,0.4277,0.3,2.5043
1512,17,holidays,TRUE,1913,3.257,study,1,3.257,0,1,0.3,0.3,Inf
1512,17,holidays,TRUE,1751,4.023999999999999,test,2,7.281,0,2,0.3,0.3,1.8007
1512,4,pants,TRUE,980,2.2440000000000007,study,3,9.525,0,1,0.3,0.3,Inf
1512,4,pants,TRUE,822,2.035,test,4,11.56,0,2,0.3,0.3,1.5736
1512,3,fish,TRUE,1123,2.4559999999999995,study,5,14.016,0,1,0.3,0.3,Inf
1512,16,wor,FALSE,1033,3.479000000000001,study,6,17.495,1,1,0.3,0.3,Inf
1512,3,holidays,FALSE,4386,9.486,test,7,26.981,7,2,0.3,0.3,2.2545
1512,16,work,TRUE,1905,6.342999999999996,test,8,33.324,0,2,0.3,0.3,2.6132
1512,9,police,TRUE,1182,2.7250000000000014,study,9,36.049,0,1,0.3,0.3,Inf
1512,12,book,TRUE,1135,2.439,study,10,38.488,0,1,0.3,0.3,Inf
1512,9,book,FALSE,987,2.1869999999999976,test,11,40.675,5,2,0.3,0.3,1.936
1512,12,fish,FALSE,1521,6.050000000000004,test,12,46.725,4,2,0.3,0.3,2.1682
1512,17,holidays,TRUE,3044,8.378999999999998,test,13,55.104,0,3,0.3496,0.3,2.4098
1512,4,fish,FALSE,2027,3.164999999999999,test,14,58.269,5,3,0.3496,0.3,2.4569
1512,15,thanks,TRUE,1323,6.152999999999999,study,15,64.422,0,1,0.3,0.3,Inf
1512,5,office,TRUE,1602,2.975999999999999,study,16,67.398,0,1,0.3,0.3,Inf
1512,15,pants,FALSE,2841,4.024000000000001,test,17,71.422,3,2,0.3,0.3,1.9884
1512,5,police,FALSE,2812,7.706000000000003,test,18,79.128,3,2,0.3,0.3,2.3191
1512,3,fish,TRUE,2499,6.950999999999993,test,19,86.079,0,3,0.298,0.3,2.523
1512,9,pants,FALSE,3376,4.900000000000006,test,20,90.979,5,3,0.3496,0.3,2.391
1512,16,office,FALSE,1858,6.537000000000006,test,21,97.516,6,3,0.3496,0.3,2.5152
1512,17,holidays,TRUE,2721,8.836999999999989,test,22,106.353,0,4,0.368,0.3,2.5132
1512,4,office,FALSE,1543,8.065000000000012,test,23,114.418,6,4,0.3992,0.3,2.5577
1512,12,fish,FALSE,1652,6.123999999999995,test,24,120.542,4,3,0.3496,0.3,2.6718
1512,15,pants,FALSE,2400,7.141000000000005,test,25,127.683,3,3,0.3496,0.3,2.505
1512,5,office,TRUE,1602,6.287999999999997,test,26,133.971,0,3,0.2504,0.3,2.4509
1512,9,fish,FALSE,1183,2.2450000000000045,test,27,136.216,5,4,0.3992,0.3,2.4577
1512,4,pants,TRUE,3213,7.788999999999987,test,28,144.005,0,5,0.4488,0.3,2.4438
1512,16,work,TRUE,1826,2.842000000000013,test,29,146.847,0,4,0.3,0.3,2.4676
1512,11,chicken,TRUE,1223,2.625,study,30,149.472,0,1,0.3,0.3,Inf
1512,6,monkey,TRUE,16989,19.947000000000003,study,31,169.419,0,1,0.3,0.3,Inf
1512,11,fis,FALSE,2856,4.6229999999999905,test,32,174.042,6,2,0.3,0.3,2.8471
1512,6,work,FALSE,1911,6.324999999999989,test,33,180.367,4,2,0.3,0.3,3.0165
1512,4,pants,TRUE,2090,6.610000000000014,test,34,186.977,0,6,0.4367,0.3,2.7785
1512,12,fish,FALSE,2685,3.7419999999999902,test,35,190.719,4,4,0.3992,0.3,2.7426
1512,9,work,FALSE,1402,5.805000000000007,test,36,196.524,5,5,0.4488,0.3,2.7841
1512,15,monkey,FALSE,1800,7.461000000000013,test,37,203.985,5,4,0.3992,0.3,2.7938
1512,17,office,FALSE,1954,10.458999999999975,test,38,214.444,7,5,0.3707,0.3,2.865
1512,9,police,TRUE,1308,6.117000000000019,test,39,220.561,0,6,0.4484,0.3,2.4734
1512,12,pants,FALSE,4549,5.805000000000007,test,40,226.366,5,5,0.4238,0.3,2.4921
1512,15,thanks,TRUE,1452,6.344999999999999,test,41,232.711,0,5,0.3988,0.3,2.4459
1512,3,work,FALSE,1938,4.156999999999982,test,42,236.868,4,4,0.3477,0.3,2.6256
1512,4,pants,TRUE,3804,8.439999999999998,test,43,245.308,0,7,0.4488,0.3,2.5675
1512,11,chicken,TRUE,2237,3.709000000000003,test,44,249.017,0,3,0.2754,0.3,2.6215
1512,6,monkey,TRUE,1430,2.9420000000000073,test,45,251.959,0,3,0.2504,0.3,2.578
1512,12,book,TRUE,1780,3.032999999999987,test,46,254.992,0,6,0.4234,0.3,2.3157
1512,9,police,TRUE,1139,2.539999999999992,test,47,257.532,0,7,0.4363,0.3,2.3643
1512,21,color,TRUE,1093,2.7660000000000196,study,48,260.298,0,1,0.3,0.3,Inf
1512,8,music,TRUE,1254,3.11099999999999,study,49,263.409,0,1,0.3,0.3,Inf
1512,21,?,FALSE,3419,4.03000000000003,test,50,267.439,5,2,0.3,0.3,2.0007
1512,8,music,TRUE,1532,6.968999999999994,test,51,274.408,0,2,0.3,0.3,2.3272
1512,17,holidays,TRUE,1693,3.459000000000003,test,52,277.867,0,6,0.3688,0.3,2.4415
1512,4,pants,TRUE,1054,2.269999999999982,test,53,280.137,0,8,0.4484,0.3,2.3535
1512,3,work,FALSE,3031,5.168000000000006,test,54,285.305,4,5,0.3754,0.3,2.4067
1512,15,thanks,TRUE,1502,6.956000000000017,test,55,292.261,0,6,0.3984,0.3,2.4312
1512,20,bike,TRUE,1229,3.2229999999999563,study,56,295.484,0,1,0.3,0.3,Inf
1512,13,wimbo ,FALSE,1292,2.6960000000000264,study,57,298.18,6,1,0.3,0.3,Inf
1512,20,bike,TRUE,3318,10.574000000000012,test,58,308.754,0,2,0.3,0.3,2.2533
1512,13,song,TRUE,1491,2.5219999999999914,test,59,311.276,0,2,0.3,0.3,2.4722
1512,21,bike,FALSE,1138,2.298000000000002,test,60,313.574,5,3,0.3496,0.3,2.3831
1512,12,fish,FALSE,1014,5.488999999999976,test,61,319.063,4,7,0.4246,0.3,2.4668
1512,8,music ,FALSE,1155,6.437000000000012,test,62,325.5,1,3,0.3496,0.3,2.392
1512,9,police,TRUE,2296,7.095000000000027,test,63,332.595,0,8,0.4242,0.3,2.4845
1512,23,pain,TRUE,1129,2.241999999999962,study,64,334.837,0,1,0.3,0.3,Inf
1512,18,friend,TRUE,1360,2.7800000000000296,study,65,337.617,0,1,0.3,0.3,Inf
1512,23,?,FALSE,3035,3.6479999999999677,test,66,341.265,4,2,0.3,0.3,1.9223
1512,18,pain,FALSE,1161,5.615000000000009,test,67,346.88,4,2,0.3,0.3,2.2851
1512,4,pants,TRUE,1241,5.853000000000009,test,68,352.733,0,9,0.3988,0.3,2.5168
1512,3,fish,TRUE,1860,2.882000000000005,test,69,355.615,0,6,0.375,0.3,2.5202
1512,20,monkey,FALSE,2648,4.291999999999973,test,70,359.907,4,3,0.3496,0.3,2.4306
1512,21,pain,FALSE,2431,6.979000000000042,test,71,366.886,5,4,0.3992,0.3,2.5029
1512,13,song,TRUE,2016,6.404999999999973,test,72,373.291,0,3,0.2504,0.3,2.4983
1512,8,music,TRUE,3825,5.680999999999983,test,73,378.972,0,4,0.3992,0.3,2.4651
1512,15,thansk,FALSE,1383,2.619000000000028,test,74,381.591,1,7,0.4129,0.3,2.5121000000000002
1512,23,pain,TRUE,1166,5.659999999999968,test,75,387.251,0,3,0.2504,0.3,2.3904
1512,12,book,TRUE,2010,3.7450000000000045,test,76,390.996,0,8,0.4242,0.3,2.4457
1512,21,pain,FALSE,1134,2.63900000000001,test,77,393.635,5,5,0.4488,0.3,2.3093
1512,18,friend,TRUE,1221,5.98599999999999,test,78,399.621,0,3,0.2504,0.3,2.4058
1512,20,bike,TRUE,1319,2.480000000000018,test,79,402.101,0,4,0.3492,0.3,2.3933
1512,17,holidays,TRUE,1779,3.5330000000000155,test,80,405.634,0,7,0.3676,0.3,2.5124
1512,8,music,TRUE,1880,3.461999999999989,test,81,409.096,0,5,0.3988,0.3,2.3741
1512,16,work,TRUE,2495,3.6410000000000196,test,82,412.737,0,5,0.2965,0.3,2.5392
1512,21,color,TRUE,2081,3.433999999999969,test,83,416.171,0,6,0.4484,0.3,2.2628
1512,1,enemy,TRUE,1041,2.8170000000000073,study,84,418.988,0,1,0.3,0.3,Inf
1512,10,cloud,TRUE,1532,4.256000000000029,study,85,423.244,0,1,0.3,0.3,Inf
1512,1,?,FALSE,2002,2.616999999999962,test,86,425.861,5,2,0.3,0.3,2.0981
1512,10,cloud,TRUE,898,5.802000000000021,test,87,431.663,0,2,0.3,0.3,2.3117
1512,9,office,FALSE,2536,3.7860000000000014,test,88,435.449,3,9,0.4246,0.3,2.51
1512,14,voice,TRUE,1453,6.0849999999999795,study,89,441.534,0,1,0.3,0.3,Inf
1512,15,thanks,TRUE,1135,2.937000000000012,test,90,444.471,0,8,0.3633,0.3,2.4187
1512,14,flavor,FALSE,2298,3.906000000000006,test,91,448.377,6,2,0.3,0.3,1.9791
1512,21,color,TRUE,1536,6.151999999999987,test,92,454.529,0,7,0.4363,0.3,2.3188
1512,3,fish,TRUE,2201,3.2509999999999764,test,93,457.78,0,7,0.352,0.3,2.4655
1512,5,fish,FALSE,1905,3.1090000000000373,test,94,460.889,4,4,0.3,0.3,2.5136
1512,11,chicken,TRUE,1316,6.156999999999982,test,95,467.046,0,4,0.25,0.3,2.5168
1512,8,music,TRUE,1004,2.382000000000005,test,96,469.428,0,6,0.3492,0.3,2.4128
1512,1,voice,FALSE,3158,4.353999999999985,test,97,473.782,5,3,0.3496,0.3,2.3436
1512,12,book,TRUE,1688,6.576999999999998,test,98,480.359,0,9,0.3809,0.3,2.4819
1512,10,voice,FALSE,1638,2.8079999999999927,test,99,483.167,5,3,0.3496,0.3,2.3866
1512,20,bike,TRUE,2071,7.617000000000019,test,100,490.784,0,5,0.3246,0.3,2.4376
1512,14,song,FALSE,2000,3.8969999999999914,test,101,494.681,4,3,0.3496,0.3,2.364
1512,24,shop,TRUE,1414,6.7379999999999995,study,102,501.419,0,1,0.3,0.3,Inf
1512,25,language,TRUE,1160,2.8290000000000077,study,103,504.248,0,1,0.3,0.3,Inf
1512,24,language,FALSE,966,2.483000000000004,test,104,506.731,8,2,0.3,0.3,2.0247
1512,25,language,TRUE,630,5.609000000000037,test,105,512.34,0,2,0.3,0.3,2.2147
1512,1,pain,FALSE,5252,6.333999999999946,test,106,518.674,5,4,0.3992,0.3,2.3672
1512,21,color,TRUE,1451,6.153999999999996,test,107,524.828,0,8,0.4273,0.3,2.4383
1512,10,voice,FALSE,2694,4.623000000000047,test,108,529.451,5,4,0.3992,0.3,2.3851
1512,9,police,TRUE,1066,5.992999999999938,test,109,535.444,0,10,0.375,0.3,2.5062
1512,14,song,FALSE,2594,3.608000000000061,test,110,539.052,4,4,0.3992,0.3,2.4047
1512,1,voice,FALSE,2134,7.79099999999994,test,111,546.843,5,5,0.4488,0.3,2.3078
1512,24,office,FALSE,2306,9.00100000000009,test,112,555.844,6,3,0.3496,0.3,2.3516
1512,10,cloud,TRUE,1239,6.553999999999974,test,113,562.398,0,5,0.3988,0.3,2.3828
1512,25,language,TRUE,1032,2.6369999999999436,test,114,565.035,0,3,0.2504,0.3,2.4123
1512,1,shop,FALSE,3016,4.540000000000077,test,115,569.575,5,6,0.4742,0.3,2.2763
1512,14,song,FALSE,1812,7.664999999999964,test,116,577.24,4,5,0.4488,0.3,2.4503
1512,17,holidays,TRUE,1898,6.970000000000027,test,117,584.21,0,8,0.318,0.3,2.5849
1512,5,fish,FALSE,1697,3.26299999999992,test,118,587.473,4,5,0.3285,0.3,2.5811
1512,4,pants,TRUE,2447,7.344000000000051,test,119,594.817,0,10,0.3805,0.3,2.5855
1512,1,enemy,TRUE,2753,10.024999999999977,test,120,604.842,0,7,0.4746,0.3,2.3825
1512,14,voice,TRUE,2913,4.048000000000002,test,121,608.89,0,6,0.4742,0.3,2.5338
1512,24,shop,TRUE,2998,4.5890000000000555,test,122,613.479,0,4,0.3992,0.3,2.5739
1512,21,color,TRUE,1382,3.4409999999999172,test,123,616.92,0,9,0.3777,0.3,2.4743
1512,19,wheel,TRUE,1157,3.1310000000000855,study,124,620.051,0,1,0.3,0.3,Inf
1512,10,cloud,TRUE,1124,2.4279999999999973,test,125,622.479,0,6,0.3492,0.3,2.4066
1512,19,wheel,TRUE,1464,2.7930000000000064,test,126,625.272,0,2,0.3,0.3,1.9727
1512,14,voice,TRUE,2770,3.9470000000000027,test,127,629.219,0,7,0.4801,0.3,2.2466
1512,1,enemy,TRUE,1549,4.70799999999997,test,128,633.927,0,8,0.4742,0.3,2.3141
1512,24,shop,TRUE,1024,2.3379999999999654,test,129,636.265,0,5,0.3887,0.3,2.2793
1512,6,monkey,TRUE,3733,5.802999999999997,test,130,642.068,0,4,0.3,0.3,2.5126
1512,22,fruit,TRUE,974,2.7340000000000373,study,131,644.802,0,1,0.3,0.3,Inf
1512,7,eye,TRUE,1150,2.40300000000002,study,132,647.205,0,1,0.3,0.3,Inf
1512,22,fruit,TRUE,1315,2.7129999999999654,test,133,649.918,0,2,0.3,0.3,1.9338
1512,7,eye,TRUE,939,1.97199999999998,test,134,651.89,0,2,0.3,0.3,1.9319
1512,2,beer,TRUE,1020,2.59699999999998,study,135,654.487,0,1,0.3,0.3,Inf
1512,23,music,FALSE,2226,4.692999999999984,test,136,659.18,4,4,0.3,0.3,2.4785
1512,2,eye,FALSE,1893,11.884000000000015,test,137,671.064,3,2,0.3,0.3,2.3361
1512,14,voice,TRUE,4492,9.076999999999998,test,138,680.141,0,8,0.5047,0.3,2.5773
1512,19,work,FALSE,1579,2.602000000000089,test,139,682.743,4,3,0.3496,0.3,2.5229
1512,1,enemy,TRUE,3080,8.056999999999903,test,140,690.8,0,9,0.5223,0.3,2.5
1512,5,office,TRUE,1983,3.2180000000000746,test,141,694.018,0,6,0.3273,0.3,2.4993
1512,22,shop,FALSE,1763,10.135999999999967,test,142,704.154,5,3,0.3496,0.3,2.3797
1512,14,voice,TRUE,2438,6.974000000000046,test,143,711.128,0,9,0.5043,0.3,2.5552
1512,1,enemy,TRUE,1244,4.678999999999974,test,144,715.807,0,10,0.5133,0.3,2.536
1512,7,office,FALSE,1419,8.640999999999963,test,145,724.448,5,3,0.3496,0.3,2.6352
1517,15,thanks,TRUE,5226,6.66,study,1,6.66,0,1,0.3,0.3,Inf
1517,15,thanks,TRUE,1074,2.9160000000000004,test,2,9.576,0,2,0.3,0.3,2.1132
1517,16,work,TRUE,1557,4.013999999999999,study,3,13.59,0,1,0.3,0.3,Inf
1517,16,work,TRUE,936,2.5040000000000013,test,4,16.094,0,2,0.3,0.3,1.8174
1517,19,wheel,TRUE,1449,4.4239999999999995,study,5,20.518,0,1,0.3,0.3,Inf
1517,6,monkey,TRUE,2107,4.120000000000001,study,6,24.638,0,1,0.3,0.3,Inf
1517,19,wheel,TRUE,1044,2.485999999999997,test,7,27.124,0,2,0.3,0.3,2.2033
1517,6,monkey,TRUE,1665,3.4200000000000017,test,8,30.544,0,2,0.3,0.3,2.0617
1517,1,enemy,TRUE,1806,4.156000000000002,study,9,34.7,0,1,0.3,0.3,Inf
1517,22,fruit,TRUE,1428,5.214999999999996,study,10,39.915,0,1,0.3,0.3,Inf
1517,1,enemy,TRUE,945,2.512999999999998,test,11,42.428,0,2,0.3,0.3,2.2568
1517,22,fruit,TRUE,808,2.3290000000000006,test,12,44.757,0,2,0.3,0.3,2.1467
1517,12,book,TRUE,1211,3.1300000000000026,study,13,47.887,0,1,0.3,0.3,Inf
1517,10,cloud,TRUE,2018,4.097000000000001,study,14,51.984,0,1,0.3,0.3,Inf
1517,12,book,TRUE,1155,2.4080000000000013,test,15,54.392,0,2,0.3,0.3,2.11
1517,10,cloud,TRUE,938,4.132999999999996,test,16,58.525,0,2,0.3,0.3,2.0539
1517,15,thanks,TRUE,3237,4.879000000000005,test,17,63.404,0,3,0.3496,0.3,2.4207
1517,16,monkey,FALSE,3796,5.7139999999999915,test,18,69.118,4,3,0.3496,0.3,2.4501
1517,19,wheel,TRUE,7515,11.525000000000006,test,19,80.643,0,3,0.3496,0.3,2.3546
1517,6,wheel,FALSE,1955,8.594999999999999,test,20,89.238,5,3,0.3496,0.3,2.4512
1517,1,enemy,TRUE,3210,7.221999999999994,test,21,96.46,0,3,0.3496,0.3,2.4133
1517,22,fruit,TRUE,6160,6.77000000000001,test,22,103.23,0,3,0.3496,0.3,2.4445
1517,12,thanks,FALSE,5159,5.766999999999996,test,23,108.997,5,3,0.3496,0.3,2.4129
1517,15,thanks,TRUE,4750,8.760000000000005,test,24,117.757,0,4,0.3875,0.3,2.5237
1517,10,wheel,FALSE,11486,12.299000000000007,test,25,130.056,5,3,0.3496,0.3,2.5771
1517,16,book,FALSE,9237,13.822999999999979,test,26,143.879,2,4,0.3992,0.3,2.7458
1517,19,monkey,FALSE,13163,17.171999999999997,test,27,161.051,5,4,0.3992,0.3,2.7292
1517,6,fruit,FALSE,2725,6.733000000000004,test,28,167.784,6,4,0.3992,0.3,2.8507
1517,1,enemy,TRUE,2961,6.967000000000013,test,29,174.751,0,4,0.3656,0.3,2.7711
1517,22,book,FALSE,12551,13.161000000000001,test,30,187.912,5,4,0.3992,0.3,2.7863
1517,16,work,TRUE,4605,9.48999999999998,test,31,197.402,0,5,0.4262,0.3,2.8517
1517,12,thanks,FALSE,4089,4.701000000000022,test,32,202.103,5,4,0.3992,0.3,2.9331
1517,15,thanks,TRUE,29453,35.00199999999998,test,33,237.105,0,5,0.4371,0.3,2.9883
1517,19,fruit,FALSE,9236,9.844999999999999,test,34,246.95,5,5,0.4332,0.3,3.1678
1517,10,cloud,TRUE,1217,6.0330000000000155,test,35,252.983,0,4,0.3,0.3,3.2712
1517,6,monkey,TRUE,11997,13.824000000000012,test,36,266.807,0,5,0.4191,0.3,3.2003
1517,22,fruit,TRUE,6431,9.404999999999973,test,37,276.212,0,5,0.4215,0.3,3.2071
1517,15,thanks,TRUE,8506,12.317999999999984,test,38,288.53,0,6,0.4406,0.3,3.2249
1517,12,book,TRUE,14217,15.402000000000044,test,39,303.932,0,5,0.4238,0.3,3.2495
1517,16,wheel,FALSE,14384,14.995000000000005,test,40,318.927,4,6,0.4281,0.3,3.3761
1517,19,wheel,TRUE,7012,12.814999999999998,test,41,331.742,0,6,0.4352,0.3,3.3095
1517,1,enemy,TRUE,5886,11.507999999999981,test,42,343.25,0,5,0.3777,0.3,3.1663
1517,6,monkey,TRUE,3747,4.355000000000018,test,43,347.605,0,6,0.4203,0.3,3.1552
1517,22,fruit,TRUE,6878,7.488999999999976,test,44,355.094,0,6,0.4219,0.3,3.1028
1517,12,book,TRUE,7563,8.949999999999989,test,45,364.044,0,6,0.4258,0.3,3.0119
1517,15,thanks,TRUE,3081,3.6920000000000073,test,46,367.736,0,7,0.4402,0.3,3.0956
1517,16,word,FALSE,6081,7.576000000000022,test,47,375.312,1,7,0.4496,0.3,2.816
1517,19,wheel,TRUE,6910,11.72199999999998,test,48,387.034,0,7,0.4379,0.3,2.7594
1517,6,monkey,TRUE,6591,7.201999999999998,test,49,394.236,0,7,0.4324,0.3,2.4854
1517,1,enemy,TRUE,4470,9.069000000000017,test,50,403.305,0,6,0.3844,0.3,2.5757
1517,22,fruit,TRUE,8149,8.762,test,51,412.067,0,7,0.434,0.3,2.5984
1517,16,work,TRUE,8717,10.154999999999973,test,52,422.222,0,8,0.4617,0.3,2.6048
1517,12,book,TRUE,8375,9.616000000000042,test,53,431.838,0,7,0.4316,0.3,2.716
1517,15,thanks,TRUE,1272,5.9839999999999804,test,54,437.822,0,8,0.4398,0.3,2.7361
1517,19,wheel,TRUE,7812,9.531999999999982,test,55,447.354,0,8,0.4594,0.3,2.5554
1517,6,monkey,TRUE,1749,3.492999999999995,test,56,450.847,0,8,0.432,0.3,2.5032
1517,16,work,TRUE,8097,9.497000000000014,test,57,460.344,0,9,0.4863,0.3,2.4182
1517,22,fruit,TRUE,1183,2.7450000000000045,test,58,463.089,0,8,0.4336,0.3,2.5097
1517,10,cloud,TRUE,1121,2.6820000000000164,test,59,465.771,0,5,0.2504,0.3,2.5099
1517,21,color,TRUE,2797,4.658999999999992,study,60,470.43,0,1,0.3,0.3,Inf
1517,12,book,TRUE,8284,10.940999999999974,test,61,481.371,0,8,0.4563,0.3,2.4127
1517,21,color,TRUE,1133,2.509999999999991,test,62,483.881,0,2,0.3,0.3,2.5801
1517,19,wheel,TRUE,8283,10.043000000000006,test,63,493.924,0,9,0.484,0.3,2.5076
1517,16,work,TRUE,6599,8.382000000000005,test,64,502.306,0,10,0.4992,0.3,2.545
1517,1,enemy,TRUE,1333,6.225999999999999,test,65,508.532,0,7,0.3793,0.3,2.6106
1517,15,thanks,TRUE,1852,4.889000000000067,test,66,513.421,0,9,0.4395,0.3,2.6062
1517,12,book,TRUE,4870,14.888999999999896,test,67,528.31,0,9,0.4934,0.3,2.4243
1517,19,?,FALSE,22,0.6310000000000855,test,68,528.941,5,10,0.5211,0.3,2.5773
1517,16,work,TRUE,3646,8.798000000000002,test,69,537.739,0,11,0.5488,0.3,2.4806
1517,6,monkey,TRUE,3239,4.7830000000000155,test,70,542.522,0,9,0.4551,0.3,2.5643
1517,12,thanks,FALSE,1683,4.876999999999953,test,71,547.399,5,10,0.518,0.3,2.4355
1517,16,work,TRUE,3005,9.470000000000027,test,72,556.869,0,12,0.5734,0.3,2.4471
1517,19,wheel,TRUE,7213,8.892999999999915,test,73,565.762,0,11,0.5457,0.3,2.5812
1517,21,color,TRUE,1515,2.8070000000000164,test,74,568.569,0,3,0.2504,0.3,2.7171
1517,16,work,TRUE,9009,11.754000000000019,test,75,580.323,0,13,0.5855,0.3,2.375
1517,12,book,TRUE,14378,16.271000000000072,test,76,596.594,0,11,0.5551,0.3,2.6139
1517,19,wheel,TRUE,24544,25.913999999999987,test,77,622.508,0,12,0.5641,0.3,2.8271
1517,16,work,TRUE,2223,4.406999999999925,test,78,626.915,0,14,0.5852,0.3,3.1195
1517,12,book,TRUE,2189,3.576000000000022,test,79,630.491,0,12,0.5547,0.3,3.0774
1517,19,wheel,TRUE,3570,5.013000000000034,test,80,635.504,0,13,0.6012,0.3,2.82
1517,22,fruit,TRUE,2328,3.980000000000018,test,81,639.484,0,9,0.4332,0.3,3.0198
1517,6,monkey,TRUE,2058,3.752999999999929,test,82,643.237,0,10,0.4547,0.3,2.8831
1517,19,wheel,TRUE,4007,5.421000000000049,test,83,648.658,0,14,0.6117,0.3,2.4301
1517,16,work,TRUE,1603,3.578999999999951,test,84,652.237,0,15,0.5848,0.3,2.6728
1517,15,thanks,TRUE,8368,9.86099999999999,test,85,662.098,0,10,0.4398,0.3,2.8373
1517,12,book,TRUE,922,2.1170000000000755,test,86,664.215,0,13,0.5543,0.3,2.7643
1517,19,wheel,TRUE,2490,3.9979999999999336,test,87,668.213,0,15,0.6113,0.3,2.5492
1517,1,enemy,TRUE,5525,7.6200000000000045,test,88,675.833,0,8,0.4016,0.3,2.6222
1517,16,work,TRUE,1333,2.5960000000000036,test,89,678.429,0,16,0.5352,0.3,2.5166
1517,19,wheel,TRUE,2218,3.5990000000000464,test,90,682.028,0,16,0.6133,0.3,2.2069
1517,12,book,TRUE,1697,2.855000000000018,test,91,684.883,0,14,0.5047,0.3,2.2953
1517,22,fruit,TRUE,2795,5.216000000000008,test,92,690.099,0,10,0.4578,0.3,2.4232
1517,6,monkey,TRUE,10886,14.020999999999958,test,93,704.12,0,11,0.4793,0.3,2.4503
1517,19,wheel,TRUE,5279,6.68100000000004,test,94,710.801,0,17,0.6184,0.3,2.4285
1517,25,language,TRUE,2618,7.222999999999956,study,95,718.024,0,1,0.3,0.3,Inf
1517,15,thanks,TRUE,3148,4.926000000000045,test,96,722.95,0,11,0.4402,0.3,2.4731
1518,16,work,TRUE,4514,5.841,study,1,5.841,0,1,0.3,0.3,Inf
1518,16,work,TRUE,1615,3.1689999999999996,test,2,9.01,0,2,0.3,0.3,2.0491
1518,19,wheel,TRUE,15135,21.906,study,3,30.916,0,1,0.3,0.3,Inf
1518,19,wheel,TRUE,894,2.8039999999999985,test,4,33.72,0,2,0.3,0.3,2.8245
1518,22,fruit,TRUE,3879,6.303000000000004,study,5,40.023,0,1,0.3,0.3,Inf
1518,7,eye,TRUE,4631,23.671,study,6,63.694,0,1,0.3,0.3,Inf
1518,22,fruit,TRUE,3862,5.247,test,7,68.941,0,2,0.3,0.3,3.0735
1518,7,eye,TRUE,1194,2.2779999999999916,test,8,71.219,0,2,0.3,0.3,3.0438
1518,16,work,TRUE,1275,2.9990000000000094,test,9,74.218,0,3,0.2504,0.3,2.602
1518,10,cloud,TRUE,2077,4.265000000000001,study,10,78.483,0,1,0.3,0.3,Inf
1518,1,enemy,TRUE,4480,6.958999999999989,study,11,85.442,0,1,0.3,0.3,Inf
1518,10,cloud,TRUE,2091,3.561000000000007,test,12,89.003,0,2,0.3,0.3,2.3655
1518,1,enemy,TRUE,1564,3.0919999999999987,test,13,92.095,0,2,0.3,0.3,2.3259
1518,19,wheel,TRUE,2087,3.817999999999998,test,14,95.913,0,3,0.2527,0.3,2.4775
1518,12,book,TRUE,8208,12.305999999999997,study,15,108.219,0,1,0.3,0.3,Inf
1518,13,song,TRUE,1857,11.262,study,16,119.481,0,1,0.3,0.3,Inf
1518,12,book,TRUE,2299,3.7210000000000036,test,17,123.202,0,2,0.3,0.3,2.8804
1518,13,song,TRUE,1402,3.622,test,18,126.824,0,2,0.3,0.3,2.5526
1518,22,fruit,TRUE,1293,2.98299999999999,test,19,129.807,0,3,0.2809,0.3,2.4974
1518,7,eye,TRUE,1025,2.1740000000000066,test,20,131.981,0,3,0.2504,0.3,2.4742
1518,11,chicken,TRUE,4879,7.331999999999994,study,21,139.313,0,1,0.3,0.3,Inf
1518,10,sky,FALSE,2826,4.474000000000018,test,22,143.787,5,3,0.3496,0.3,2.417
1518,11,chicken,TRUE,2379,7.373999999999995,test,23,151.161,0,2,0.3,0.3,2.5626
1518,1,enemy,TRUE,1188,2.608000000000004,test,24,153.769,0,3,0.2504,0.3,2.52
1518,23,pain,TRUE,5137,9.037999999999982,study,25,162.807,0,1,0.3,0.3,Inf
1518,21,color,TRUE,1569,11.172000000000025,study,26,173.979,0,1,0.3,0.3,Inf
1518,23,pain,TRUE,2212,3.470999999999975,test,27,177.45,0,2,0.3,0.3,2.7642
1518,21,color,TRUE,2723,20.03200000000001,test,28,197.482,0,2,0.3,0.3,2.5372
1518,12,book,TRUE,1166,2.515999999999991,test,29,199.998,0,3,0.2504,0.3,2.6394
1518,13,song,TRUE,1557,2.872000000000014,test,30,202.87,0,3,0.2504,0.3,2.6492
1518,10,cloud,TRUE,1649,3.030000000000001,test,31,205.9,0,4,0.3,0.3,2.6116
1518,11,chicken,TRUE,1009,2.5079999999999814,test,32,208.408,0,3,0.2504,0.3,2.4601
1518,18,friend,TRUE,2188,8.240000000000009,study,33,216.648,0,1,0.3,0.3,Inf
1518,15,thanks,TRUE,2213,17.27199999999999,study,34,233.92,0,1,0.3,0.3,Inf
1518,18,friend,TRUE,1587,3.237000000000023,test,35,237.157,0,2,0.3,0.3,2.9425
1518,15,thanks,TRUE,1063,4.231999999999999,test,36,241.389,0,2,0.3,0.3,2.775
1518,23,pain,TRUE,1107,2.191999999999979,test,37,243.581,0,3,0.2504,0.3,2.5432
1518,21,color,TRUE,4407,5.7190000000000225,test,38,249.3,0,3,0.3496,0.3,2.5431
1518,4,pants,TRUE,3799,15.635999999999967,study,39,264.936,0,1,0.3,0.3,Inf
1518,6,monkey,TRUE,2229,4.456000000000017,study,40,269.392,0,1,0.3,0.3,Inf
1518,4,pants,TRUE,1444,3.415999999999997,test,41,272.808,0,2,0.3,0.3,2.7598
1518,6,monkey,TRUE,1037,3.0190000000000055,test,42,275.827,0,2,0.3,0.3,2.1569
1518,24,shop,TRUE,1448,5.035000000000025,study,43,280.862,0,1,0.3,0.3,Inf
1518,14,voice,TRUE,2297,5.209000000000003,study,44,286.071,0,1,0.3,0.3,Inf
1518,24,shop,TRUE,1276,3.248999999999967,test,45,289.32,0,2,0.3,0.3,2.3097
1518,14,voice,TRUE,1350,3.223000000000013,test,46,292.543,0,2,0.3,0.3,2.1976
1518,21,color,TRUE,2588,4.108000000000004,test,47,296.651,0,4,0.3625,0.3,2.4703
1518,18,friend,TRUE,2841,4.387999999999977,test,48,301.039,0,3,0.3246,0.3,2.4925
1518,15,thanks,TRUE,1215,2.694999999999993,test,49,303.734,0,3,0.2504,0.3,2.5069
1518,20,bike,TRUE,2426,5.867999999999995,study,50,309.602,0,1,0.3,0.3,Inf
1518,8,music,TRUE,1297,7.675000000000011,study,51,317.277,0,1,0.3,0.3,Inf
1518,20,bike,TRUE,1556,2.7590000000000146,test,52,320.036,0,2,0.3,0.3,2.4853
1518,8,music,TRUE,579,1.9320000000000164,test,53,321.968,0,2,0.3,0.3,2.3209
1518,6,monkey,TRUE,1835,3.5289999999999964,test,54,325.497,0,3,0.2504,0.3,2.3779
1518,4,pants,TRUE,1324,2.723000000000013,test,55,328.22,0,3,0.2504,0.3,2.4235
1518,22,fruit,TRUE,2368,3.7519999999999527,test,56,331.972,0,4,0.2688,0.3,2.5121000000000002
1518,17,holidays,TRUE,5085,7.334000000000003,study,57,339.306,0,1,0.3,0.3,Inf
1518,24,voice,FALSE,19203,20.50200000000001,test,58,359.808,5,3,0.3496,0.3,2.4142
1518,17,holidays,TRUE,1864,7.6480000000000246,test,59,367.456,0,2,0.3,0.3,3.108
1518,14,sorry,FALSE,25687,27.08699999999999,test,60,394.543,4,3,0.3496,0.3,2.712
1518,8,music,TRUE,542,11.95999999999998,test,61,406.503,0,3,0.2504,0.3,2.6886
1518,20,bike,TRUE,1582,2.7560000000000286,test,62,409.259,0,3,0.2504,0.3,2.7714
1518,21,color,TRUE,2855,4.199999999999989,test,63,413.459,0,5,0.3676,0.3,2.7809
1518,24,shop,TRUE,1063,2.396000000000015,test,64,415.855,0,4,0.3,0.3,2.7235
1518,18,friend,TRUE,3086,5.555999999999983,test,65,421.411,0,4,0.3375,0.3,2.7232
1518,14,voice,TRUE,4116,6.678999999999974,test,66,428.09,0,4,0.3875,0.3,2.5894
1518,17,holidays,TRUE,1275,3.8600000000000136,test,67,431.95,0,3,0.2504,0.3,2.5151
1518,16,work,TRUE,5658,6.9360000000000355,test,68,438.886,0,4,0.3,0.3,2.6151
1518,10,cloud,TRUE,1967,3.680999999999983,test,69,442.567,0,5,0.2512,0.3,2.4997
1518,19,song,FALSE,15462,16.581999999999994,test,70,459.149,5,4,0.3023,0.3,2.5128
1518,14,voice,TRUE,4247,8.906000000000006,test,71,468.055,0,5,0.4371,0.3,2.4431
1518,5,office,TRUE,2484,16.690999999999974,study,72,484.746,0,1,0.3,0.3,Inf
1518,14,voice,TRUE,6762,8.112000000000023,test,73,492.858,0,6,0.4414,0.3,2.2724
1518,5,office,TRUE,1333,2.728999999999985,test,74,495.587,0,2,0.3,0.3,2.9204
1518,21,color,TRUE,1823,3.1159999999999854,test,75,498.703,0,6,0.3617,0.3,2.5074
1518,1,book,FALSE,29196,30.422000000000025,test,76,529.125,5,4,0.3,0.3,2.5448
1518,18,friend,TRUE,1358,6.19399999999996,test,77,535.319,0,5,0.3246,0.3,2.599
1518,14,voice,TRUE,1906,3.8710000000000946,test,78,539.19,0,7,0.441,0.3,2.4581
1518,16,work,TRUE,1409,2.4939999999999145,test,79,541.684,0,5,0.2504,0.3,2.5574
1518,7,eye,TRUE,1299,2.3490000000000464,test,80,544.033,0,4,0.2008,0.3,2.5539
1518,19,wheel,TRUE,6221,8.258000000000038,test,81,552.291,0,5,0.327,0.3,2.492
1518,5,office,TRUE,2107,3.52699999999993,test,82,555.818,0,3,0.2559,0.3,2.4584
1518,11,chicken,TRUE,2951,4.427999999999997,test,83,560.246,0,4,0.275,0.3,2.5165
1518,13,song,TRUE,2220,3.44500000000005,test,84,563.691,0,4,0.2008,0.3,2.5228
1518,3,fish,TRUE,4143,21.99599999999998,study,85,585.687,0,1,0.3,0.3,Inf
1518,12,?,FALSE,59401,60.00599999999997,test,86,645.693,4,4,0.2508,0.3,2.5257
1518,3,fish,TRUE,2073,6.560000000000059,test,87,652.253,0,2,0.3,0.3,4.097
1518,14,voice,TRUE,1702,2.9209999999999354,test,88,655.174,0,8,0.4406,0.3,2.9132
1518,1,enemy,TRUE,1381,2.7380000000000564,test,89,657.912,0,5,0.2504,0.3,2.6888
1518,23,pain,TRUE,1287,2.38799999999992,test,90,660.3,0,4,0.2008,0.3,2.589
1518,21,color,TRUE,2466,3.68100000000004,test,91,663.981,0,7,0.3613,0.3,2.5575
1518,6,monkey,TRUE,1435,2.9080000000000155,test,92,666.889,0,4,0.2008,0.3,2.5798
1518,24,shop,TRUE,2043,3.312000000000012,test,93,670.201,0,5,0.2551,0.3,2.5561
1518,19,wheel,TRUE,2020,3.2830000000000155,test,94,673.484,0,6,0.3266,0.3,2.5029
1518,15,thanks,TRUE,8270,9.642999999999915,test,95,683.127,0,4,0.3,0.3,2.5219
1518,4,pants,TRUE,2159,3.4580000000000837,test,96,686.585,0,4,0.2008,0.3,2.5059
1518,25,language,TRUE,3624,8.850999999999999,study,97,695.436,0,1,0.3,0.3,Inf
1518,3,fish,TRUE,1953,3.0090000000000146,test,98,698.445,0,3,0.2504,0.3,2.3964
1518,25,language,TRUE,1083,2.988999999999919,test,99,701.434,0,2,0.3,0.3,2.4
1518,14,voice,TRUE,2557,3.8360000000000127,test,100,705.27,0,9,0.4496,0.3,2.4478
1518,2,beer,TRUE,1323,4.402000000000044,study,101,709.672,0,1,0.3,0.3,Inf
1518,9,police,TRUE,1426,7.456000000000017,study,102,717.128,0,1,0.3,0.3,Inf
1518,2,beer,TRUE,974,2.11099999999999,test,103,719.239,0,2,0.3,0.3,2.3999
1518,9,police,TRUE,375,2.4839999999999236,test,104,721.723,0,2,0.3,0.3,2.2689
1521,3,fish,TRUE,6526,7.032,study,1,7.032,0,1,0.3,0.3,Inf
1521,3,fish,TRUE,1265,2.545,test,2,9.577,0,2,0.3,0.3,2.1405
1521,13,song,TRUE,2619,4.603,study,3,14.18,0,1,0.3,0.3,Inf
1521,13,song,TRUE,763,1.9770000000000003,test,4,16.157,0,2,0.3,0.3,1.8809
1521,6,monkey,TRUE,4177,7.050000000000001,study,5,23.207,0,1,0.3,0.3,Inf
1521,8,music,TRUE,2325,5.216999999999999,study,6,28.424,0,1,0.3,0.3,Inf
1521,6,monkey,TRUE,1417,3.1709999999999994,test,7,31.595,0,2,0.3,0.3,2.4212
1521,8,music,TRUE,3577,5.051000000000002,test,8,36.646,0,2,0.3,0.3,2.1931
1521,19,wheel,TRUE,1252,3.554000000000002,study,9,40.2,0,1,0.3,0.3,Inf
1521,23,pain,TRUE,1815,3.488999999999997,study,10,43.689,0,1,0.3,0.3,Inf
1521,19,wheel,TRUE,2067,3.357999999999997,test,11,47.047,0,2,0.3,0.3,2.0959
1521,23,pain,TRUE,767,1.791000000000004,test,12,48.838,0,2,0.3,0.3,2.0813
1521,17,holidays,TRUE,1056,3.5,study,13,52.338,0,1,0.3,0.3,Inf
1521,12,book,TRUE,2645,4.573,study,14,56.911,0,1,0.3,0.3,Inf
1521,17,holidays,TRUE,2749,4.305999999999997,test,15,61.217,0,2,0.3,0.3,2.1714
1521,12,fish,FALSE,1101,2.088000000000001,test,16,63.305,4,2,0.3,0.3,2.225
1521,3,book,FALSE,2292,7.104999999999997,test,17,70.41,4,3,0.3496,0.3,2.5165
1521,13,pain,FALSE,5080,9.486000000000004,test,18,79.896,4,3,0.3496,0.3,2.57
1521,6,song,FALSE,3281,7.823999999999998,test,19,87.72,4,3,0.3496,0.3,2.4246
1521,8,music,TRUE,3108,8.036000000000001,test,20,95.756,0,3,0.3496,0.3,2.5065
1521,19,wheel,TRUE,1301,2.5150000000000006,test,21,98.271,0,3,0.2504,0.3,2.4261
1521,23,pain,TRUE,1723,2.7150000000000034,test,22,100.986,0,3,0.2504,0.3,2.4169
1521,1,enemy,TRUE,1265,3.7560000000000002,study,23,104.742,0,1,0.3,0.3,Inf
1521,17,holidays,TRUE,1128,2.5219999999999914,test,24,107.264,0,3,0.2504,0.3,2.3576
1521,1,pet,FALSE,4960,5.869,test,25,113.133,4,2,0.3,0.3,2.0348
1521,3,fish,TRUE,1225,6.685000000000002,test,26,119.818,0,4,0.3,0.3,2.4951
1521,13,book,FALSE,3386,4.554000000000002,test,27,124.372,3,4,0.3992,0.3,2.4785
1521,12,book,TRUE,1788,6.339999999999989,test,28,130.712,0,3,0.2504,0.3,2.5836
1521,6,monkey,TRUE,1242,2.6280000000000143,test,29,133.34,0,4,0.3,0.3,2.4262
1521,8,pet,FALSE,9565,10.432999999999993,test,30,143.773,5,4,0.3992,0.3,2.3921
1521,13,song,TRUE,1686,6.01400000000001,test,31,149.787,0,5,0.3988,0.3,2.299
1521,18,friend,TRUE,1448,3.688999999999993,study,32,153.476,0,1,0.3,0.3,Inf
1521,1,enemy,TRUE,1343,2.548000000000002,test,33,156.024,0,3,0.2504,0.3,2.3532
1521,18,friend,TRUE,873,2.1270000000000095,test,34,158.151,0,2,0.3,0.3,2.0319
1521,14,voice,TRUE,1405,3.2749999999999773,study,35,161.426,0,1,0.3,0.3,Inf
1521,22,fruit,TRUE,985,2.622000000000014,study,36,164.048,0,1,0.3,0.3,Inf
1521,14,fruit,FALSE,1098,5.1129999999999995,test,37,169.161,5,2,0.3,0.3,2.0031
1521,22,fruit,TRUE,552,5.189999999999998,test,38,174.351,0,2,0.3,0.3,2.3611
1521,8,music,TRUE,4022,5.5519999999999925,test,39,179.903,0,5,0.4488,0.3,2.4934
1521,2,beer,TRUE,1012,2.8540000000000134,study,40,182.757,0,1,0.3,0.3,Inf
1521,24,shop,TRUE,1188,2.955999999999989,study,41,185.713,0,1,0.3,0.3,Inf
1521,2,beer,TRUE,1357,2.459000000000003,test,42,188.172,0,2,0.3,0.3,1.9955
1521,24,shop,TRUE,978,2.068000000000012,test,43,190.24,0,2,0.3,0.3,1.96
1521,25,language,TRUE,1202,2.984999999999985,study,44,193.225,0,1,0.3,0.3,Inf
1521,8,music,TRUE,1087,2.3799999999999955,test,45,195.605,0,6,0.4484,0.3,2.2409
1521,25,language,TRUE,8166,9.582000000000022,test,46,205.187,0,2,0.3,0.3,1.9553
1521,18,friend,TRUE,1247,2.613999999999976,test,47,207.801,0,3,0.2504,0.3,2.3963
1521,13,song,TRUE,1852,2.788000000000011,test,48,210.589,0,6,0.3984,0.3,2.4099
1521,14,dress,FALSE,4665,12.203000000000003,test,49,222.792,5,3,0.3496,0.3,2.3632
1521,22,fruit,TRUE,1273,6.1370000000000005,test,50,228.929,0,3,0.2504,0.3,2.4144
1521,16,work,TRUE,995,2.3460000000000036,study,51,231.275,0,1,0.3,0.3,Inf
1521,2,beer,TRUE,957,5.052999999999997,test,52,236.328,0,3,0.2504,0.3,2.3499
1521,16,stool,FALSE,6914,8.536000000000001,test,53,244.864,4,2,0.3,0.3,2.1229
1521,24,shop,TRUE,1368,5.846000000000004,test,54,250.71,0,3,0.2504,0.3,2.5568
1521,8,music,TRUE,1317,4.974999999999994,test,55,255.685,0,7,0.3988,0.3,2.5733
1521,25,language,TRUE,1210,2.559000000000026,test,56,258.244,0,3,0.2504,0.3,2.5577
1521,14,pain,FALSE,13380,14.364999999999952,test,57,272.609,4,4,0.3992,0.3,2.4426
1521,7,eye,TRUE,1044,6.051000000000045,study,58,278.66,0,1,0.3,0.3,Inf
1521,21,color,TRUE,1052,2.950999999999965,study,59,281.611,0,1,0.3,0.3,Inf
1521,7,eye,TRUE,1449,2.6100000000000136,test,60,284.221,0,2,0.3,0.3,1.9768
1521,21,color,TRUE,401,1.6259999999999764,test,61,285.847,0,2,0.3,0.3,1.9731
